# Sample number;Sensor position;AccX;AccY;AccZ;GyroX;GyroY;GyroZ;MagX;MagY;MagZ;Sensor position;AccX;AccY;AccZ;GyroX;GyroY;GyroZ;MagX;MagY;MagZ;Sensor position;AccX;AccY;AccZ;GyroX;GyroY;GyroZ;MagX;MagY;MagZ;Init algo done;Pause;
0;0;0.803164;2.449160;9.929240;-0.406229;0.241513;0.219769;0.508882;0.094213;-1.088237;1;-0.915991;0.949226;9.829235;0.126877;0.247826;-0.141298;0.492832;-0.361779;-0.697174;6;9.733211;-1.215439;-0.001330;0.858161;1.048997;-0.578619;-0.596492;0.072980;-0.156433;0;0;
1;0;0.623896;2.045504;9.526238;0.085267;0.553555;0.008751;0.070731;-0.299117;-0.646949;1;-0.684413;0.892512;9.890663;0.220183;0.309526;-0.017297;0.033628;0.010400;-1.011676;6;10.017442;-0.811807;-0.533260;1.012447;0.894082;-0.333937;-0.541381;-0.143648;0.288671;1;0;
2;0;0.846150;2.158774;9.190056;0.056868;0.828607;0.135974;0.070345;-0.285346;-0.650365;1;-0.736257;1.061848;10.172795;0.159214;0.370274;-0.047570;0.021092;-0.018173;-1.038092;6;9.963793;-0.752360;-0.234578;0.672073;0.398385;0.158667;-0.597012;-0.144465;0.288391;1;0;
3;0;0.571961;2.391401;9.810838;0.149358;0.952658;0.076388;0.098257;-0.341522;-0.584512;1;-0.631013;1.173914;9.722191;0.125942;0.185691;-0.018604;0.008040;-0.033568;-1.036813;6;9.732806;-1.041211;-0.000589;0.330917;0.059420;0.283772;-0.554733;-0.094449;0.270562;1;0;
4;0;0.510418;2.160712;9.581347;0.210741;0.890090;0.197866;0.085609;-0.309734;-0.657959;1;0.007473;0.947596;9.961857;0.095633;0.245623;0.136108;0.020432;0.024573;-0.998054;6;10.023775;-0.694172;-0.173324;0.607691;-0.031350;0.283203;-0.554241;-0.081561;0.331836;1;0;
5;0;0.619525;1.929656;9.298343;0.239370;0.708277;-0.019846;0.084451;-0.268421;-0.668206;1;-0.566972;0.948722;10.006408;0.159682;0.429993;0.199649;0.019835;-0.037781;-0.979690;6;9.724967;-0.984866;-0.419690;0.640469;0.151352;0.373901;-0.555076;-0.146331;0.335185;1;0;
6;0;0.114505;1.587551;9.798552;0.116385;0.646241;-0.020501;0.084480;-0.303020;-0.633222;1;-0.681887;0.836276;10.003895;0.092398;-0.000301;0.226144;0.046823;-0.003774;-1.025297;6;9.609001;-0.926025;-0.301830;0.945878;0.251164;-0.300065;-0.568429;-0.097132;0.317075;1;0;
7;0;0.571427;1.586979;9.750607;0.394892;1.046694;0.015874;0.084494;-0.320319;-0.615731;1;-0.622120;0.948924;10.118478;0.096569;0.336410;0.321980;0.020507;0.039894;-0.999057;6;9.731995;-0.692755;0.000895;0.483954;0.279460;-0.237401;-0.568570;-0.095479;0.286020;1;0;
8;0;0.450854;2.275154;9.467010;1.012273;1.568866;0.298594;0.084851;-0.299492;-0.647298;1;-0.624861;1.117821;10.005341;0.188276;0.246597;0.167020;0.019911;-0.022460;-0.980693;6;9.612032;-0.809131;-0.121614;0.393670;0.368059;0.037569;-0.541101;-0.128282;0.303362;1;0;
9;0;0.915529;2.333711;9.817278;1.042867;1.694369;0.085871;0.056996;-0.312514;-0.643184;1;-0.798335;0.892775;9.944885;0.034273;0.275705;0.105530;0.033332;0.009328;-0.997326;6;9.602533;-0.985585;-0.661518;0.580929;0.271281;0.587486;-0.568566;-0.114150;0.333440;1;0;
10;0;0.631691;2.047193;9.924210;0.981265;1.569766;0.206695;0.069973;-0.288874;-0.636289;1;-0.685621;0.892464;9.834024;0.189056;0.307927;0.167631;0.007896;-0.003999;-1.024470;6;9.661975;-0.695092;-0.599275;0.798765;0.206150;1.045454;-0.541239;-0.145301;0.319727;1;0;
11;0;0.628433;1.931586;9.753168;1.041361;1.573528;-0.100097;0.027254;-0.308578;-0.603674;1;-0.465893;1.342298;9.386122;0.157968;0.306529;0.321732;0.046603;0.010475;-1.011951;6;9.487532;-0.868421;-0.483504;0.547173;0.369874;-0.085247;-0.555497;-0.160045;0.289438;1;0;
12;0;0.392569;2.160071;9.408561;0.949624;1.509897;0.052473;0.071131;-0.330188;-0.626042;1;-0.274740;1.173695;10.239200;0.282675;0.399890;0.353589;0.046748;-0.019094;-1.024294;6;9.668577;-0.693609;-0.239833;0.203849;0.438660;-0.940089;-0.554591;-0.096101;0.301618;1;0;
13;0;0.448710;2.159788;9.352821;0.885599;1.235807;-0.197141;0.083337;-0.279006;-0.625978;1;-0.626069;1.117774;9.948702;0.094814;0.184091;0.166324;0.046899;0.011546;-1.026301;6;9.906013;-0.810054;-0.176019;0.419362;0.036414;-0.419384;-0.554800;-0.112294;0.302455;1;0;
14;0;0.624062;1.815738;9.525273;0.609941;1.108811;0.046932;0.055881;-0.323099;-0.600956;1;-1.081650;1.062495;10.165541;0.218782;0.244976;0.475310;0.007450;-0.035712;-1.008113;6;9.841764;-0.927307;-0.477148;0.826946;0.211305;0.556318;-0.540959;-0.129935;0.334418;1;0;
15;0;0.395127;1.701021;9.520336;0.365271;1.168782;0.079279;0.099329;-0.279039;-0.679215;1;-0.511370;1.342880;9.951309;0.188278;0.275249;0.475586;0.033923;0.011471;-1.026025;6;9.840259;-0.753326;-0.536314;0.919326;0.367107;0.310736;-0.540821;-0.112916;0.318053;1;0;
16;0;0.689028;1.932269;9.924841;0.212544;1.229183;0.111368;0.056239;-0.302271;-0.632524;1;-0.847546;0.949545;10.340201;0.033534;0.243228;0.382659;0.020432;0.024573;-0.998054;6;9.424384;-0.985427;-0.724726;1.259488;0.707964;0.002248;-0.541940;-0.174381;0.259290;1;0;
17;0;0.452299;1.815863;9.521933;0.059214;0.947014;0.536574;0.083365;-0.313605;-0.590995;1;-0.967620;1.005902;10.111272;0.219834;0.307715;0.260138;0.033182;-0.021313;-0.995319;6;9.555912;-0.634027;0.057748;1.135177;0.988816;-0.579335;-0.554800;-0.112294;0.302455;1;0;
18;0;0.517223;1.989835;9.921742;0.182670;1.101593;0.508063;0.084122;-0.323848;-0.601655;1;-0.395484;0.948351;9.953395;-0.151948;0.240273;0.474965;0.020576;-0.004996;-1.010396;6;9.615064;-0.692238;0.058601;1.010262;1.022430;-0.915233;-0.554591;-0.096101;0.301618;1;0;
19;0;0.569858;2.218594;9.696408;-0.122108;1.251735;0.695387;0.071131;-0.330188;-0.626042;1;-0.397017;1.117295;9.896898;0.126255;0.244606;0.351919;0.021016;-0.033493;-1.037088;6;9.788385;-0.984012;-0.178962;1.260938;1.233031;-0.489268;-0.568846;-0.129517;0.318750;1;0;
20;0;0.674884;1.469600;9.183820;-0.094299;0.884488;0.566668;0.084851;-0.299492;-0.647298;1;-0.568720;1.230327;9.950005;-0.153547;0.088760;0.196004;0.006564;-0.038927;-0.965064;6;9.787285;-0.984259;-0.238869;1.419266;1.505110;-0.124386;-0.554662;-0.095275;0.286090;1;0;
21;0;0.110751;2.161243;9.630406;0.028053;0.885755;0.505000;0.069959;-0.271575;-0.653781;1;-0.565093;1.230469;10.119924;0.064934;0.274889;0.290515;0.034067;-0.018098;-1.038368;6;9.434714;-0.692574;-0.124421;1.605908;1.564749;0.088593;-0.610432;-0.113110;0.302174;1;0;
22;0;0.798834;2.275870;9.701103;0.152392;1.006473;0.751947;0.112707;-0.286470;-0.651413;1;-0.411415;1.060395;9.217175;0.097310;0.397538;0.353417;0.020432;0.024573;-0.998054;6;9.549985;-0.925890;-0.302930;1.663701;1.479191;-0.491902;-0.569058;-0.127038;0.272166;1;0;
23;0;0.334076;2.332196;9.351318;0.274864;1.007393;0.720941;0.084465;-0.285721;-0.650714;1;-0.622227;1.005255;10.118525;0.221705;0.460637;0.323316;0.007525;-0.020391;-1.009117;6;9.554792;-1.099129;-0.064044;1.234644;1.658970;-0.277266;-0.582754;-0.129721;0.318679;1;0;
24;0;0.564622;1.757856;9.410212;0.396049;1.074644;0.261668;0.071131;-0.330188;-0.626042;1;-0.857756;1.230818;9.887321;-0.059461;0.211790;0.320615;-0.005451;-0.020466;-1.008841;6;9.613828;-0.634409;-0.001059;0.950407;1.422396;-1.161426;-0.512797;-0.096315;0.317356;1;0;
25;0;0.450030;1.872822;9.408468;0.057468;0.826868;0.289284;0.013505;-0.304676;-0.617400;1;-0.282101;1.229741;9.899410;-0.025019;0.488367;0.292565;0.008561;0.013465;-1.054173;6;9.730605;-1.041706;-0.120402;1.136416;1.359045;-0.886734;-0.554729;-0.113120;0.317983;1;0;
26;0;0.452009;2.217953;9.523622;0.055962;0.706027;0.103317;0.084108;-0.306548;-0.619146;1;-0.681002;1.005315;10.060677;-0.028099;0.243250;0.259297;0.033923;0.011471;-1.026025;6;9.553016;-0.808996;-0.122715;1.260095;1.296733;-0.734071;-0.527264;-0.127252;0.287905;1;0;
27;0;0.455474;2.046353;9.693457;-0.191156;0.460071;0.008027;0.056253;-0.319570;-0.615032;1;-0.394383;1.004729;10.010082;-0.056615;0.427048;0.230274;0.021167;-0.002852;-1.039096;6;9.901476;-0.752967;-0.415399;1.254607;1.027730;-1.344020;-0.541310;-0.144475;0.304199;1;0;
28;0;0.218496;2.274596;9.291997;-0.006001;0.582466;0.132155;0.081065;-0.248278;-0.593998;1;-0.913250;0.780329;9.942372;-0.180933;0.364352;0.198722;0.020356;0.009253;-0.997050;6;9.552861;-1.215776;-0.184352;1.219342;0.849756;-1.893167;-0.568358;-0.097958;0.332603;1;0;
29;0;0.619318;2.216864;9.299550;0.114779;0.337880;0.066496;0.070388;-0.337244;-0.597890;1;-0.848431;0.780506;10.283419;0.067429;0.459683;0.169042;0.033037;0.008256;-0.982976;6;9.725933;-0.926542;-0.359536;1.346851;1.059598;-1.436193;-0.541172;-0.127456;0.287834;1;0;
30;0;0.685563;2.103870;9.755005;0.021175;0.154450;-0.058887;0.084480;-0.303020;-0.633222;1;-0.337703;0.835582;9.954509;-0.087159;0.457120;0.261376;0.033552;-0.004921;-1.010672;6;9.905743;-0.693902;-0.175525;1.408079;0.812266;-1.160172;-0.526705;-0.096519;0.317286;1;0;
31;0;0.222825;2.447885;9.520133;-0.071162;0.092557;-0.059627;0.098229;-0.306923;-0.619496;1;-0.850849;0.780411;10.170140;0.067506;0.460086;0.107390;-0.005376;-0.005146;-1.009845;6;9.731840;-1.099534;-0.060743;1.256731;0.806352;-0.640030;-0.540892;-0.112090;0.302525;1;0;
32;0;0.398302;1.931511;9.691861;-0.100621;0.182871;0.095265;0.043276;-0.343209;-0.621927;1;-0.622335;1.061585;10.118573;0.098050;0.430014;0.076287;0.034218;0.012543;-1.040375;6;9.909044;-0.693160;0.004196;0.827735;1.079161;-0.548090;-0.499027;-0.113130;0.333791;1;0;
33;0;0.516151;1.932152;9.864647;-0.285589;0.185142;-0.180177;0.055896;-0.340398;-0.583465;1;-0.675281;1.174544;10.344017;0.066843;0.399360;0.014301;0.007305;-0.006143;-0.995771;6;9.897634;-0.521404;-0.594131;0.828732;1.418800;-0.855342;-0.526146;-0.065787;0.346667;1;0;
34;0;0.747396;1.932469;9.982807;-0.103317;-0.028428;-0.245509;0.083722;-0.292777;-0.622562;1;-0.919617;0.949084;9.659317;-0.178634;0.519487;-0.077186;-0.005300;0.010174;-1.010848;6;9.667342;-0.635780;-0.299493;0.735145;1.110048;-0.609028;-0.540821;-0.112916;0.318053;1;0;
35;0;0.337168;2.677569;9.523325;-0.196867;-0.337219;-0.158254;0.097871;-0.327751;-0.587928;1;-0.797341;1.005483;10.001620;-0.239955;0.549771;-0.138590;0.020576;-0.004996;-1.010396;6;9.791977;-0.634567;0.062149;0.523036;1.133242;0.033448;-0.541030;-0.129108;0.318890;1;0;
36;0;0.279381;1.873187;9.461980;-0.319230;-0.244552;-0.248400;0.056996;-0.312514;-0.643184;1;-1.029805;0.893159;9.883410;-0.240540;0.489448;-0.293331;0.033848;-0.003849;-1.025022;6;9.428381;-0.810210;-0.484357;0.527995;1.185910;0.858380;-0.540754;-0.095071;0.286160;1;0;
37;0;0.455349;2.218677;9.694181;-0.135505;-0.211919;-0.340402;0.084122;-0.323848;-0.601655;1;-0.400428;1.004492;9.726884;-0.147350;0.550544;-0.076852;0.047049;0.042187;-1.028308;6;10.084452;-0.461508;-0.051421;0.123305;1.036564;0.371550;-0.568708;-0.112498;0.302385;1;0;
38;0;0.509553;1.815821;9.523046;-0.260903;-0.517377;-0.559682;0.069988;-0.306174;-0.618797;1;-0.518084;1.060943;9.611234;0.007861;0.613632;-0.045272;0.033628;0.010400;-1.011676;6;9.961997;-0.927083;-0.355134;-0.098511;0.767731;-0.329310;-0.568917;-0.128690;0.303222;1;0;
39;0;0.512769;1.988870;9.694329;-0.506121;-0.581029;-0.468006;0.085994;-0.323506;-0.654543;1;-0.687046;1.005078;9.777479;-0.116066;0.581601;-0.076518;0.007085;0.008106;-0.982425;6;9.547089;-1.100860;-0.483392;0.176951;0.617358;-0.482404;-0.554938;-0.129313;0.318820;1;0;
40;0;0.450030;1.872822;9.408468;-0.475200;-0.519074;-0.497756;0.112364;-0.324597;-0.602353;1;-0.446682;0.779704;10.235242;0.037625;0.522231;-0.076985;0.020281;-0.006068;-0.996047;6;9.556203;-0.285323;0.119138;0.090075;1.009961;-0.025521;-0.568499;-0.096306;0.301548;1;0;
41;0;0.797845;2.103304;9.643526;-0.629577;-0.735608;-0.439495;0.084494;-0.320319;-0.615731;1;-1.143858;0.330069;9.880518;0.098401;0.460478;0.107419;0.008046;0.026642;-1.026478;6;10.141922;-1.217373;-0.233255;-0.119274;1.276296;0.768603;-0.582825;-0.128895;0.303152;1;0;
42;0;0.742652;2.333594;9.757084;-0.599638;-0.827313;-0.471740;0.084494;-0.320319;-0.615731;1;-0.624537;0.948829;10.005199;0.160734;0.492732;-0.015523;0.033552;-0.004921;-1.010672;6;9.612302;-0.925283;-0.122109;-0.082968;1.607535;1.286464;-0.540684;-0.095897;0.301688;1;0;
43;0;0.101884;2.101871;9.175340;-0.753392;-0.889145;-0.502970;0.069216;-0.278632;-0.625629;1;-1.199198;1.062616;10.049844;-0.086966;0.429474;-0.201320;0.007085;0.008106;-0.982425;6;9.780122;-1.218294;-0.659206;0.006713;1.613227;0.766539;-0.554729;-0.113120;0.317983;1;0;
44;0;0.571013;2.161394;9.753020;-0.601745;-0.946417;-0.811018;0.098972;-0.299866;-0.647648;1;-0.917415;1.061840;9.772691;0.007782;0.584578;-0.292185;-0.005671;-0.006218;-0.995495;6;9.668827;-1.274616;-0.302212;0.188925;1.836532;-0.060386;-0.568917;-0.128690;0.303222;1;0;
45;0;0.800321;1.759137;9.755785;-0.600708;-0.918119;-0.595884;0.055481;-0.292028;-0.621864;1;-0.674634;0.836561;10.343733;-0.177426;0.611683;-0.107096;0.021242;0.012468;-1.040099;6;10.085512;-1.390972;-0.115283;0.065110;1.774909;-0.059644;-0.555706;-0.176238;0.290275;1;0;
46;0;0.169077;2.218884;9.688614;-0.600958;-0.823489;-0.809022;0.113492;-0.331311;-0.627089;1;-0.683635;1.117881;9.947493;-0.210114;0.458772;-0.231956;-0.005671;-0.006218;-0.995495;6;9.790451;-0.925441;-0.058901;0.063677;1.529245;0.033222;-0.554800;-0.112294;0.302455;1;0;
47;0;0.389104;2.331672;9.238725;-0.597979;-0.644312;-0.346098;0.084108;-0.306548;-0.619146;1;-0.450956;1.117545;10.065607;0.069299;0.583953;-0.076346;-0.018496;0.024348;-0.997227;6;9.549289;-1.100365;-0.363579;-0.060575;1.561598;-0.180422;-0.555009;-0.128486;0.303292;1;0;
48;0;0.453537;1.643779;9.578062;-0.629097;-0.736999;-0.316847;0.056639;-0.333341;-0.611616;1;-0.577852;0.948295;9.496651;0.006106;0.461315;-0.200928;0.033477;-0.020241;-1.009668;6;9.781803;-0.520640;-0.476518;0.060873;1.472479;-0.394376;-0.540892;-0.112090;0.302525;1;0;
49;0;0.568496;2.563002;9.641003;-0.566664;-0.520894;-0.374851;0.083379;-0.330904;-0.573503;1;-0.857432;1.061827;9.887179;-0.053734;0.585203;-0.508025;0.020281;-0.006068;-0.996047;6;9.373612;-1.215865;-0.307467;0.219575;1.557552;0.307589;-0.527473;-0.143444;0.288742;1;0;
50;0;0.568786;2.160911;9.639314;-0.691113;-0.735199;-0.500647;0.069945;-0.254276;-0.671273;1;-0.397340;1.286287;9.897040;-0.147587;0.463380;-0.817593;0.007600;-0.005071;-1.010121;6;9.669793;-1.216293;-0.242058;0.190641;1.584879;0.613193;-0.513214;-0.128700;0.319030;1;0;
51;0;0.746117;2.161993;9.926920;-0.567614;-0.612047;-0.468333;0.083708;-0.275478;-0.640054;1;-0.334939;1.286369;10.124807;-0.209376;0.462596;-0.817650;-0.017987;-0.049039;-1.035258;6;9.672554;-0.983247;-0.061349;-0.028762;1.621942;-0.089137;-0.555080;-0.127660;0.287764;1;0;
52;0;0.394713;2.275436;9.522750;-0.538232;-0.733441;-0.593063;0.098229;-0.306923;-0.619496;1;-0.801961;0.892633;9.774966;-0.641155;0.489585;-1.095181;0.007380;0.009178;-0.996774;6;9.724967;-0.984866;-0.419690;-0.340137;1.533477;-0.515466;-0.555426;-0.160871;0.304966;1;0;
53;0;0.398012;2.333602;9.693550;-1.089714;-0.611350;-0.742831;0.072617;-0.316074;-0.682345;1;-0.629696;1.117631;9.778783;-0.886126;0.669633;-0.970276;0.020576;-0.004996;-1.010396;6;9.545988;-1.101107;-0.543299;-1.080941;1.811798;-1.064240;-0.568779;-0.111672;0.286857;1;0;
54;0;0.512070;1.414213;9.635063;-1.029180;-0.577551;-0.987801;0.027269;-0.325878;-0.586182;1;-1.022313;1.400465;10.280314;-1.010560;0.606333;-0.909350;0.047043;-0.018022;-1.038644;6;9.958696;-0.927824;-0.534854;-1.140557;1.900824;-0.819948;-0.540821;-0.112916;0.318053;1;0;
55;0;0.458607;2.334284;9.865223;-1.061358;-0.854977;-0.930881;0.070731;-0.299117;-0.646949;1;-0.620695;0.836311;10.175023;-0.919436;0.484850;-0.910484;0.033552;-0.004921;-1.010672;6;10.019913;-0.927465;-0.413940;-0.517491;2.139249;0.001853;-0.554174;-0.063716;0.299944;1;0;
56;0;0.682057;2.332912;9.585411;-1.029673;-0.826535;-0.715833;0.069959;-0.271575;-0.653781;1;-0.692097;1.117549;9.551015;-0.916787;0.670449;-1.155261;0.008191;-0.002927;-1.038820;6;9.490429;-0.693451;-0.303041;0.528482;1.930151;-0.123189;-0.527126;-0.110233;0.271540;1;0;
57;0;0.975834;2.736484;9.990640;-0.876192;-0.826515;-0.654939;0.084866;-0.316791;-0.629807;1;-0.630905;1.117584;9.722143;-0.946707;0.732393;-1.308809;0.045863;-0.022310;-0.981245;6;9.545718;-0.984955;-0.542805;1.236080;2.246166;-0.860766;-0.555009;-0.128486;0.303292;1;0;
58;0;0.557568;2.273382;9.071265;-1.733461;-0.864383;-0.377074;0.070745;-0.316417;-0.629457;1;-0.629912;1.230292;9.778878;-1.011186;0.517157;-1.341829;0.020796;-0.019244;-1.023742;6;9.719600;-1.044178;-0.719471;1.726530;1.818737;-0.768814;-0.512797;-0.096315;0.317356;1;0;
59;0;0.509263;2.217912;9.524735;-1.888319;-1.079527;-0.441461;0.098615;-0.320694;-0.616080;1;-0.625315;0.723460;9.948370;-0.765861;0.424876;-0.818473;0.007525;-0.020391;-1.009117;6;9.782458;-1.275875;-0.539639;1.444097;0.957759;-0.427492;-0.582687;-0.111876;0.286787;1;0;
60;0;0.510335;2.275595;9.581830;-1.920420;-1.325874;-0.414704;0.098986;-0.317166;-0.630156;1;-0.398333;1.173578;9.840305;-0.456062;0.490528;-0.879227;0.033923;0.011471;-1.026025;6;10.495479;-0.985879;-0.225663;1.369294;-0.600950;-0.572596;-0.555288;-0.143853;0.288601;1;0;
61;0;0.628433;1.931586;9.753168;-1.861493;-1.600438;-0.572676;0.056624;-0.316042;-0.629108;1;-0.623544;1.061538;10.061933;-0.518006;0.488939;-0.755980;0.020652;0.010325;-1.011400;6;10.193930;-1.044764;-0.590854;2.400950;-1.900538;-1.731509;-0.541310;-0.144475;0.304199;1;0;
62;0;0.394920;1.988229;9.521543;-2.075235;-1.572446;-0.418266;0.070745;-0.316417;-0.629457;1;-0.915213;1.174596;9.886065;-0.455750;0.520790;-0.817270;0.008040;-0.033568;-1.036813;6;9.854119;-1.505595;0.119448;3.872453;-2.375814;-2.590316;-0.540825;-0.094245;0.270632;1;0;
63;0;0.511573;2.103511;9.637959;-2.106407;-1.539771;-0.601653;0.084494;-0.320319;-0.615731;1;-0.174786;0.891210;9.505066;-0.425556;0.488907;-0.570938;0.007896;-0.003999;-1.024470;6;9.432243;-0.576917;-0.243741;4.618729;-2.260884;-1.615571;-0.554658;-0.113946;0.333511;1;0;
64;0;0.511573;2.103511;9.637959;-2.107303;-1.756286;-0.482498;0.070373;-0.319945;-0.615381;1;-0.854799;0.949261;10.000363;-0.207697;0.643164;-0.291776;-0.018647;-0.006293;-0.995219;6;9.371161;-0.635352;-0.364902;4.562111;-2.239658;-0.729152;-0.582336;-0.097336;0.317005;1;0;
65;0;0.514049;1.759345;9.750217;-2.320640;-1.416453;-0.721705;0.069959;-0.271575;-0.653781;1;-1.088795;1.005880;9.825656;-0.239175;0.611101;-0.137980;0.020796;-0.019244;-1.023742;6;9.670063;-1.332445;-0.242553;4.689380;-2.060409;-0.272027;-0.527051;-0.129731;0.334488;1;0;
66;0;0.743973;2.046628;9.812731;-2.073706;-1.295162;-0.475100;0.042118;-0.301896;-0.632175;1;-0.392205;0.497802;10.066295;-0.241086;0.457978;-0.170332;0.007896;-0.003999;-1.024470;6;10.017847;-0.986035;-0.534001;5.988273;-1.628449;-0.187104;-0.541101;-0.128282;0.303362;1;0;
67;0;0.906787;2.102015;9.361488;-0.966694;-0.486807;-0.833166;0.084866;-0.316791;-0.629807;1;-0.162027;1.173384;10.128339;-0.363922;0.517538;-0.139011;0.034073;0.042112;-1.028033;6;9.597997;-0.928497;-0.900898;6.110404;-1.439427;-0.677453;-0.554591;-0.096101;0.301618;1;0;
68;0;0.568046;1.643696;9.580289;-0.504819;-0.052676;-0.980780;0.070745;-0.316417;-0.629457;1;-0.496325;1.061797;10.630747;-0.362128;0.670057;-0.014180;0.034143;-0.002777;-1.039371;6;9.778751;-1.102389;-0.718618;6.049626;-1.348197;-0.647106;-0.596453;-0.113732;0.317772;1;0;
69;0;0.794380;2.274905;9.473691;0.603556;0.626490;-0.788924;0.098600;-0.303395;-0.633572;1;-0.631013;1.173914;9.722191;-0.393449;0.667451;0.324878;0.008116;-0.018248;-1.037816;6;9.780817;-1.043818;-0.598557;6.078271;-1.902789;-0.247247;-0.568425;-0.115803;0.364496;1;0;
70;0;0.912603;1.758572;9.644305;0.916270;1.392390;-0.440028;0.098214;-0.289624;-0.636987;1;-0.567857;0.779683;9.949626;-0.425513;0.575065;0.323933;0.032962;-0.007065;-0.981973;6;10.066689;-0.872243;-1.071568;6.325089;-2.523139;0.671708;-0.554942;-0.110641;0.271399;1;0;
71;0;0.453122;2.218195;9.580475;0.703524;1.480107;-0.131310;0.057367;-0.308985;-0.657260;1;-0.452619;0.723137;9.951996;-0.487379;0.573878;0.385528;0.007160;0.023426;-0.983428;6;9.731685;-1.506314;-0.122380;5.798469;-3.048188;0.981752;-0.555009;-0.128486;0.303292;1;0;
72;0;0.738447;1.987980;9.528224;0.766720;1.662697;0.055483;0.041747;-0.305425;-0.618099;1;-0.911371;1.062077;10.055889;-0.331347;0.727150;0.695459;0.007896;-0.003999;-1.024470;6;10.260940;-0.694465;-0.109015;5.984827;-3.174292;1.409563;-0.582963;-0.145913;0.319516;1;0;
73;0;0.789186;1.756725;9.187254;0.704058;1.353356;0.203975;0.071502;-0.326659;-0.640118;1;-0.733516;0.892952;10.285932;-0.176292;0.760781;0.541777;0.020947;0.011396;-1.025750;6;9.364403;-1.043615;-0.785981;6.601460;-2.985704;1.131361;-0.541172;-0.127456;0.287834;1;0;
74;0;0.500562;1.928774;9.068704;0.764251;1.200331;0.170647;0.042475;-0.281069;-0.663743;1;-0.222549;1.455050;10.014088;-0.023887;0.608813;0.632873;0.033182;-0.021313;-0.995319;6;9.731570;-0.983382;-0.060248;7.216751;-3.073992;1.007302;-0.499377;-0.127670;0.303573;1;0;
75;0;0.744138;1.816862;9.811765;0.335386;1.135126;0.324161;0.098986;-0.317166;-0.630156;1;-0.510184;0.723244;9.950787;-0.117272;0.546710;0.570524;0.020362;0.069462;-0.986715;6;9.723617;-0.404105;-0.417217;6.261356;-2.550482;0.335876;-0.554591;-0.096101;0.301618;1;0;
76;0;0.457493;2.334043;9.808370;0.211298;0.919779;0.290351;0.070359;-0.302645;-0.632873;1;-0.743834;1.230555;9.833099;0.131167;0.642443;0.479192;0.033552;-0.004921;-1.010672;6;10.141922;-1.217373;-0.233255;6.287676;-1.330918;-2.237302;-0.540546;-0.078879;0.285323;1;0;
77;0;0.568869;2.046028;9.638831;-0.035109;0.765671;0.227220;0.084080;-0.271950;-0.654130;1;-0.280354;0.948135;9.955813;-0.115206;0.700637;0.479572;0.020872;-0.003924;-1.024746;6;10.197232;-1.044022;-0.411133;6.388291;-0.600856;-1.813277;-0.555288;-0.143853;0.288601;1;0;
78;0;0.568910;1.988587;9.638590;-0.251295;0.487736;0.253993;0.084094;-0.289249;-0.636638;1;-0.865786;1.005164;9.490654;-0.361619;0.758630;0.510779;0.021092;-0.018173;-1.038092;6;9.432918;-0.867297;-0.244977;6.857313;-0.114806;-1.328295;-0.499377;-0.127670;0.303573;1;0;
79;0;0.855224;1.930938;9.643916;-0.312745;0.425290;0.314491;0.056239;-0.302271;-0.632524;1;-1.030236;1.118481;9.883600;-0.548543;0.633619;0.509385;0.033037;0.008256;-0.982976;6;10.017577;-0.869883;-0.533507;7.344447;-0.132273;-2.430223;-0.554241;-0.081561;0.331836;1;0;
80;0;0.520812;1.645909;10.090853;-0.283876;0.242781;0.158102;0.084465;-0.285721;-0.650714;1;-1.142626;0.949799;9.994319;-0.732506;0.724469;0.325172;0.007230;-0.021463;-0.994767;6;9.776551;-1.102883;-0.838432;7.646924;-0.213160;-3.378359;-0.513076;-0.111682;0.302665;1;0;
81;0;0.457576;2.219160;9.807887;-0.498403;0.147845;0.310516;0.042504;-0.315667;-0.628759;1;-0.735264;1.174557;10.229529;-0.672316;0.602393;0.354835;-0.005376;-0.005146;-1.009845;6;9.424945;-0.752875;-0.663831;7.555431;-0.277509;-3.102662;-0.513214;-0.128700;0.319030;1;0;
82;0;0.513800;2.103994;9.751665;-0.345042;0.148213;0.340748;0.083351;-0.296306;-0.608486;1;-0.340337;0.948148;9.841325;-0.237964;0.760600;0.449242;0.033697;-0.034490;-1.023014;6;9.308283;-0.868510;-0.606619;7.373711;-0.501757;-2.184067;-0.582545;-0.113528;0.317842;1;0;
83;0;0.621586;2.159905;9.413015;-0.499953;0.058431;0.063724;0.098972;-0.299866;-0.647648;1;-0.804248;1.455890;9.718801;-0.240185;0.605868;0.663498;-0.018056;-0.004149;-1.023919;6;9.902016;-0.985271;-0.416388;7.064948;-0.812542;-1.814717;-0.569055;-0.145709;0.319587;1;0;
84;0;0.683295;2.160829;9.641541;-0.530744;-0.097805;0.275949;0.070373;-0.319945;-0.615381;1;-0.510939;1.117558;9.951119;-0.361035;0.790301;0.356953;-0.006041;-0.022610;-0.980142;6;9.485602;-0.985067;-0.603812;6.726754;-0.753528;-1.722087;-0.582896;-0.128068;0.287624;1;0;
85;0;0.737333;1.987739;9.471371;-0.714982;-0.191555;0.336291;0.113478;-0.314012;-0.644581;1;-0.559934;1.061667;10.346340;-0.579985;0.544453;0.015224;0.020426;-0.035637;-1.008389;6;10.073987;-0.696285;-0.651478;6.727569;-0.692980;-1.661253;-0.554662;-0.095275;0.286090;1;0;
86;0;0.510542;1.988387;9.580623;-0.840054;-0.560562;0.299986;0.084851;-0.299492;-0.647298;1;-0.626632;0.779743;9.891777;-0.887760;0.603876;-0.292714;0.033332;0.009328;-0.997326;6;10.017422;-1.276663;-0.595144;6.849668;-0.721235;-1.844936;-0.526846;-0.094867;0.286230;1;0;
87;0;0.340965;2.046435;9.691230;-0.534446;-0.619205;0.175482;0.084866;-0.316791;-0.629807;1;-0.568935;1.342988;9.950100;-0.395011;0.487488;-0.293475;0.020652;0.010325;-1.011400;6;9.425350;-0.927103;-0.664572;7.370649;-0.868513;-2.212868;-0.568775;-0.130343;0.334277;1;0;
88;0;0.393931;1.815663;9.463966;-0.809679;-0.622231;0.329565;0.084465;-0.285721;-0.650714;1;-0.463822;0.891701;9.442382;-0.115287;0.642931;-0.075908;0.032962;-0.007065;-0.981973;6;9.600197;-0.928003;-0.781085;7.460541;-1.391035;-1.935638;-0.540959;-0.129935;0.334418;1;0;
89;0;0.684325;2.275953;9.698876;-0.844313;-1.111652;0.107035;0.069959;-0.271575;-0.653781;1;-0.737466;1.061801;10.116155;-0.732507;0.695817;0.016606;0.007531;0.039818;-0.998782;6;9.425640;-0.578400;-0.603182;6.993702;-2.005427;-1.839328;-0.540821;-0.112916;0.318053;1;0;
90;0;0.612596;2.272858;8.958673;-0.600557;-1.200269;-0.109782;0.084094;-0.289249;-0.636638;1;-0.633861;1.399142;9.609101;-1.445882;0.471746;0.075460;0.020206;-0.021388;-0.995043;6;9.829389;-0.813874;-1.135630;6.767957;-2.856706;-2.415133;-0.554800;-0.112294;0.302455;1;0;
91;0;0.280080;2.447844;9.521247;-0.941257;-1.473217;-0.573258;0.068459;-0.268389;-0.614969;1;-0.855923;0.273200;9.886515;-1.505254;0.655353;0.015582;0.007676;0.010249;-1.011124;6;9.364288;-0.520684;-0.723849;6.150612;-3.540705;-1.553886;-0.568917;-0.128690;0.303222;1;0;
92;0;0.690059;2.047393;9.982177;-1.220245;-1.527972;-1.278711;0.070731;-0.299117;-0.646949;1;-0.679685;0.949032;10.117269;-1.720384;0.744403;0.047122;-0.005231;-0.034715;-1.022187;6;9.419038;-0.579883;-0.962623;5.631813;-4.204812;0.376615;-0.527402;-0.144271;0.304269;1;0;
93;0;0.620349;2.331988;9.356886;-1.160641;-1.773195;-1.313536;0.085237;-0.313263;-0.643883;1;-0.853267;0.780316;10.056861;-2.213291;0.859985;0.171187;0.046603;0.010475;-1.011951;6;9.899970;-0.578986;-0.474565;4.659253;-4.700919;3.652785;-0.555080;-0.127660;0.287764;1;0;
94;0;0.563260;2.102264;9.354807;-1.469284;-1.768368;-1.864597;0.083365;-0.313605;-0.590995;1;-1.083636;0.837078;10.052072;-2.185164;0.645523;0.199906;0.033037;0.008256;-0.982976;6;9.488343;-1.216877;-0.484987;4.082406;-5.589449;6.562707;-0.555355;-0.161698;0.320494;1;0;
95;0;0.509222;2.275353;9.524977;-1.593110;-1.827971;-2.079887;0.083351;-0.296306;-0.608486;1;-1.083097;0.555425;10.051835;-1.496072;-1.032236;0.214605;0.007010;-0.007215;-0.981421;6;9.727459;-0.635668;-0.238486;3.714768;-5.781560;7.267940;-0.554729;-0.113120;0.317983;1;0;
96;0;0.681068;2.160346;9.527834;-1.407354;-1.707313;-1.802447;0.070759;-0.333716;-0.611966;1;-1.014113;0.274092;10.562563;1.438588;-3.304571;1.735779;0.020501;-0.020316;-1.009393;6;9.305002;-0.404396;-0.724455;2.976544;-5.601322;7.330883;-0.526917;-0.094041;0.270703;1;0;
97;0;0.395210;1.586138;9.519854;-1.955739;-1.406392;-1.458627;0.057367;-0.308985;-0.657260;1;-0.669152;0.498767;10.570007;3.705481;-4.664376;3.080525;0.020432;0.024573;-0.998054;6;9.309404;-0.403408;-0.484827;2.241623;-5.365264;7.913148;-0.541451;-0.142822;0.273144;1;0;
98;0;0.405066;1.818075;10.032497;-1.001481;-1.038387;-0.995370;0.083351;-0.296306;-0.608486;1;-0.611263;0.329668;10.571073;6.825401;-6.934609;4.632706;0.034368;0.043184;-1.042382;6;9.133030;-0.693383;-0.489365;0.766492;-5.628218;9.172910;-0.540266;-0.063512;0.300014;1;0;
99;0;0.687542;2.449001;9.870160;-0.691430;-0.765583;-0.531808;0.055853;-0.288500;-0.635940;1;-0.771548;0.161474;11.133700;8.635435;-12.710736;5.193298;-0.018942;-0.007365;-0.980870;6;9.423169;-0.462743;-0.722501;-0.648563;-6.136287;10.494767;-0.568637;-0.113324;0.317912;1;0;
100;0;0.457908;1.759627;9.805957;-0.567537;-0.580967;-0.498496;0.041732;-0.288125;-0.635591;1;-1.939775;-0.229011;12.977088;-6.797284;-28.733294;5.668974;0.046158;-0.021238;-0.995594;6;8.941136;-0.463887;-1.270467;-2.561305;-6.730959;11.146409;-0.554241;-0.081561;0.331836;1;0;
101;0;0.852831;2.160222;9.531175;-0.936835;-0.953901;-0.288818;0.042118;-0.301896;-0.632175;1;-1.045192;0.331574;11.807473;13.059991;-38.212170;11.787270;-0.018352;-0.005221;-1.009569;6;9.545313;-0.810727;-0.542063;-4.500236;-6.930930;12.071358;-0.540892;-0.112090;0.302525;1;0;
102;0;0.509429;1.988146;9.523770;-1.425864;-0.803574;-0.192964;0.027626;-0.305050;-0.617750;1;-1.582660;2.247165;11.061891;13.739954;-47.665715;14.221806;0.046528;-0.004846;-1.010948;6;9.012797;-0.693607;-0.611379;-6.618434;-7.111380;14.005554;-0.527473;-0.143444;0.288742;1;0;
103;0;0.455515;1.988911;9.693216;-2.069557;-0.837659;-0.160997;0.070359;-0.302645;-0.632873;1;0.468395;2.244815;12.803390;-8.991230;-59.549616;14.424500;0.007826;0.040890;-1.013131;6;9.256970;-0.866645;-0.188371;-7.958003;-6.682969;16.484256;-0.568358;-0.097958;0.332603;1;0;
104;0;0.629588;1.874386;9.809780;-2.621459;-0.933473;-0.068962;0.056624;-0.316042;-0.629108;1;-2.786108;2.815354;14.037668;5.983362;-70.648724;5.200930;-0.005156;-0.019395;-1.023191;6;9.656587;-1.219260;-0.960941;-7.874282;-5.358609;18.586766;-0.526701;-0.115191;0.364707;1;0;
105;0;0.511946;1.586538;9.635787;-2.926525;-0.751208;-0.003785;0.083337;-0.279006;-0.625978;1;-1.436446;1.797491;12.479919;7.667885;-83.480875;9.945657;-0.031547;0.008953;-0.995947;6;9.662090;-1.218024;-0.661407;-7.914536;-3.754026;20.168768;-0.540825;-0.094245;0.270632;1;0;
106;0;0.335563;1.815463;9.405999;-2.805677;-0.870782;-0.251420;0.055853;-0.288500;-0.635940;1;-1.476009;1.234957;13.271190;-2.482585;-94.512686;11.800891;-0.018942;-0.007365;-0.980870;6;10.005182;-1.221306;-1.253873;-8.330256;-1.395183;19.669931;-0.513006;-0.112508;0.318193;1;0;
107;0;0.454526;1.816345;9.635639;-2.560869;-0.680726;-0.647720;0.069959;-0.271575;-0.653781;1;-1.351554;0.784429;13.669706;4.546244;-107.481528;14.698898;-0.045264;-0.023907;-0.964965;6;10.607428;-1.684792;-0.645777;-9.745426;0.208330;17.925057;-0.596240;-0.116211;0.364356;1;0;
108;0;0.631815;1.874869;9.923486;-2.162329;-0.585279;-0.769988;0.055867;-0.305799;-0.618448;1;-0.944970;0.783817;13.848087;10.955739;-120.437196;18.922220;-0.031623;-0.006368;-0.994944;6;10.423257;-0.988711;-0.945646;-11.851593;1.243660;14.687657;-0.526776;-0.095693;0.301758;1;0;
109;0;1.193142;1.986925;9.366573;-2.037496;-0.215576;-0.795007;0.084851;-0.299492;-0.647298;1;-1.362411;1.403686;13.217111;17.704557;-133.677917;20.306721;-0.097243;-0.039528;-0.962858;6;10.721214;-1.279272;-0.821567;-13.480345;1.224314;10.078197;-0.567802;-0.048554;0.314564;1;0;
110;0;0.565611;1.930422;9.467789;-1.300613;0.128343;-1.006216;0.098600;-0.303395;-0.633572;1;-0.452590;0.950843;12.669678;15.018192;-143.375535;19.838254;-0.110364;-0.010034;-0.950240;6;9.777901;-1.683644;-0.840904;-15.765365;-0.022519;5.629964;-0.554662;-0.095275;0.286090;1;0;
111;0;0.397106;2.046153;9.635491;-1.544490;0.217308;-0.820059;0.042132;-0.319196;-0.614683;1;-0.789629;1.008152;13.058949;14.234879;-151.462214;20.682161;-0.123415;-0.025429;-0.948961;6;9.554076;-1.738460;-0.186577;-17.302076;-1.530940;3.075359;-0.499239;-0.110651;0.287208;1;0;
112;0;0.905590;2.216657;9.305117;-2.002982;0.274191;-0.603138;0.056624;-0.316042;-0.629108;1;0.474801;0.160681;12.914915;11.466619;-155.739922;17.092071;-0.110734;-0.026426;-0.934887;6;8.912331;-1.619092;0.221160;-16.947336;-3.332469;2.899290;-0.540054;-0.065991;0.346597;1;0;
113;0;0.859388;2.333994;9.873017;-2.427695;0.572553;0.016293;0.098586;-0.286095;-0.651063;1;0.340651;-0.008854;12.006121;12.649688;-155.247487;14.477445;-0.163009;-0.043119;-0.918430;6;9.095017;-1.676337;0.523749;-15.388572;-5.287956;3.239177;-0.568775;-0.130343;0.334277;1;0;
114;0;-0.170695;1.645441;9.850079;-2.699755;0.779434;0.633795;0.097829;-0.275853;-0.640403;1;0.461526;0.779842;12.349041;7.398683;-148.092877;13.064510;-0.162783;0.002843;-0.921441;6;9.453361;-2.082938;0.708342;-12.283927;-6.842436;3.785499;-0.540404;-0.080531;0.316379;1;0;
115;0;0.452133;2.045629;9.522898;-2.821303;0.713226;1.001083;0.070388;-0.337244;-0.597890;1;-0.275663;-2.377797;7.178883;14.941266;-138.760988;3.822223;-0.188961;-0.043269;-0.917879;6;8.686421;-2.197334;0.693542;-9.999009;-7.430535;5.247101;-0.540963;-0.111263;0.286997;1;0;
116;0;0.798425;1.299123;9.640148;-2.725657;0.890745;1.647714;0.042118;-0.301896;-0.632175;1;-5.441289;-2.761841;7.749425;-8.404615;-108.263002;-13.033791;-0.228033;-0.013925;-0.904709;6;9.632185;-2.373476;0.770314;-7.469600;-8.230916;6.617154;-0.568149;-0.081766;0.331766;1;0;
117;0;0.800196;1.931462;9.756509;-2.662800;0.886512;2.046143;0.082965;-0.282535;-0.611902;1;-7.642424;-2.816982;4.362911;-4.826421;-82.241517;-16.286620;-0.241895;-0.017215;-0.861384;6;9.508805;-1.967662;0.530216;-4.327233;-8.370024;6.361921;-0.512864;-0.114160;0.349249;1;0;
118;0;0.684408;2.161070;9.698394;-2.416499;0.947034;2.230423;0.068844;-0.282160;-0.611553;1;-7.475575;-3.941863;6.686604;-43.317233;-37.551732;-6.440195;-0.254726;-0.046859;-0.873451;6;10.041456;-2.142858;0.599285;-0.447571;-7.445675;4.081710;-0.554591;-0.096101;0.301618;1;0;
119;0;0.856337;1.931179;9.700769;-2.322676;0.973328;2.659925;0.041747;-0.305425;-0.618099;1;-7.546062;-3.263880;8.837060;-32.113807;13.202822;0.454837;-0.215353;-0.014922;-0.890635;6;10.214798;-1.969777;0.423607;2.589583;-6.408679;5.410579;-0.540054;-0.065991;0.346597;1;0;
120;0;0.626988;2.390877;9.698245;-2.075469;1.156429;2.876861;0.098214;-0.289624;-0.636987;1;-6.247791;-3.718046;7.618414;-15.783357;34.622161;5.613518;-0.215428;-0.030242;-0.889632;6;10.506287;-2.319897;0.187999;4.567417;-4.360994;3.284731;-0.567799;-0.067226;0.361985;1;0;
121;0;0.571345;1.701862;9.751089;-1.648028;1.131873;2.507222;0.084108;-0.306548;-0.619146;1;-5.532295;-3.608066;6.104956;-17.649561;45.584970;3.748037;-0.266816;-0.043719;-0.916224;6;11.030850;-1.857741;-0.099654;6.303830;-1.672115;1.187296;-0.513006;-0.112508;0.318193;1;0;
122;0;0.739809;1.643572;9.583629;-1.219146;1.447451;1.959101;0.055496;-0.309328;-0.604372;1;-5.521523;-3.551309;6.614760;-29.921384;61.207665;-4.522504;-0.266741;-0.028398;-0.917228;6;10.556811;-1.508451;-0.166881;6.648216;0.461520;-0.932974;-0.554170;-0.082388;0.347364;1;0;
123;0;0.918004;1.989544;9.929536;-0.699556;1.360122;1.741513;0.084480;-0.303020;-0.633222;1;-5.790955;-2.423354;7.572537;-34.976716;80.836001;-11.668282;-0.241524;-0.000823;-0.876738;6;10.500110;-2.030753;-0.110300;5.826077;1.491094;-6.130453;-0.526705;-0.096519;0.317286;1;0;
124;0;0.225467;1.873952;9.631426;-0.117752;1.646032;1.161799;0.069988;-0.306174;-0.618797;1;-5.948606;-2.704114;8.248348;-28.725560;98.373081;-14.818128;-0.200675;0.036474;-0.965670;6;9.557918;-1.970022;-0.007846;4.842480;2.816779;-7.477911;-0.540262;-0.082184;0.347434;1;0;
125;0;0.685646;1.988986;9.754523;-0.518504;1.337898;1.065942;0.041361;-0.291654;-0.621515;1;-5.138502;-2.367450;8.492116;-20.314773;111.078264;-15.486457;-0.240048;0.004536;-0.948486;6;9.374017;-1.390093;-0.308209;4.460173;3.991013;-5.801261;-0.540262;-0.082184;0.347434;1;0;
126;0;0.628226;2.218794;9.754375;-0.335455;1.341190;0.850794;0.040989;-0.295182;-0.607439;1;-4.522529;-2.200308;7.712602;-19.167023;118.722889;-15.563604;-0.240639;0.002392;-0.919787;6;9.438670;-1.447068;-0.007821;4.317160;4.466032;-4.458298;-0.555076;-0.146331;0.335185;1;0;
127;0;0.510169;2.505361;9.582795;0.217827;1.558192;0.914064;0.042118;-0.301896;-0.632175;1;-4.177437;-1.412280;7.777159;-24.516582;123.216483;-14.968306;-0.239678;0.020929;-0.963840;6;9.432472;-1.622780;-0.368005;4.362687;4.345055;-1.615607;-0.568775;-0.130343;0.334277;1;0;
128;0;1.086386;2.046138;9.762559;0.338149;1.471437;0.482958;0.111206;-0.283284;-0.612601;1;-4.229605;-1.073952;8.059432;-28.565356;125.865977;-10.968477;-0.187039;-0.006196;-1.005984;6;9.143434;-1.853172;-0.074961;4.091589;4.238732;-0.299924;-0.554103;-0.064543;0.315471;1;0;
129;0;0.460792;2.392208;9.979170;0.642805;1.321643;0.264972;0.068859;-0.299459;-0.594061;1;-4.048208;-0.566921;8.516603;-31.084715;127.625093;-3.708504;-0.213066;-0.021667;-1.004429;6;9.380174;-2.144093;-0.071796;3.665073;4.165281;0.741110;-0.554729;-0.113120;0.317983;1;0;
130;0;0.625217;1.758538;9.581885;0.891221;1.751640;0.393917;0.070002;-0.323473;-0.601305;1;-3.979655;-0.622933;9.027521;-32.787616;128.186485;5.574987;-0.187253;0.068262;-0.982303;6;9.560929;-2.317984;0.110485;2.777280;4.522528;1.384447;-0.554450;-0.097754;0.332673;1;0;
131;0;0.681192;1.988021;9.527110;1.199009;1.843180;0.578526;0.042118;-0.301896;-0.632175;1;-3.629750;-0.454398;9.261475;-34.810640;125.492727;15.380920;-0.198608;0.043977;-1.066119;6;9.555447;-1.854365;-0.127165;1.627190;4.070289;0.351625;-0.568566;-0.114150;0.333440;1;0;
132;0;0.225550;1.759069;9.630944;0.769263;1.811836;0.456582;0.055867;-0.305799;-0.618448;1;-2.921634;-1.300033;10.011585;-36.205607;118.732867;25.023770;-0.172952;0.043055;-1.052320;6;9.610736;-2.145869;-0.366928;1.737919;3.411620;-0.990396;-0.568499;-0.096306;0.301548;1;0;
133;0;0.623731;2.275271;9.527204;0.833298;1.991992;0.858007;0.111949;-0.276227;-0.640752;1;-2.352001;-0.681664;9.797637;-39.592976;110.611175;32.832675;-0.159015;0.061667;-1.096649;6;9.138337;-2.028637;-0.375237;2.658654;3.236765;-1.512459;-0.554521;-0.096928;0.317146;1;0;
134;0;0.685895;1.644337;9.753075;0.497021;1.894051;1.225396;0.084866;-0.316791;-0.629807;1;-1.878742;-1.020036;10.373420;-43.335756;103.451710;37.999569;-0.184671;0.062588;-1.110447;6;9.679386;-2.027627;0.173829;2.529396;3.061293;-2.336339;-0.526913;-0.112712;0.318123;1;0;
135;0;0.567880;1.873463;9.581254;0.930534;2.227497;1.812253;0.069602;-0.292403;-0.622213;1;-1.803606;-1.357463;11.167299;-45.029562;99.361503;41.657173;-0.157463;0.082346;-1.169401;6;9.195557;-2.203494;-0.494692;2.327148;2.068813;-4.042348;-0.540963;-0.111263;0.286997;1;0;
136;0;0.276822;2.332237;9.350205;0.566722;2.558612;2.278695;0.027240;-0.291279;-0.621165;1;-1.931472;-1.019738;10.598770;-44.682298;97.870215;45.465630;-0.144117;0.098814;-1.185030;6;8.906829;-1.620328;-0.078374;1.902342;0.436333;-6.050087;-0.568429;-0.097132;0.317075;1;0;
137;0;0.795950;1.643289;9.527890;0.443420;2.466193;2.246880;0.069573;-0.257804;-0.657197;1;-0.846861;-1.303818;10.168385;-50.198771;99.106845;47.169199;-0.155987;0.087706;-1.241150;6;9.268454;-2.491043;0.224055;1.982024;-0.718797;-6.717212;-0.568637;-0.113324;0.317912;1;0;
138;0;0.631484;2.334401;9.925416;0.138250;2.554871;2.433205;0.085266;-0.347861;-0.608899;1;-0.550980;-0.459020;10.628258;-62.922273;101.750383;44.657132;-0.130626;0.085712;-1.213002;6;9.091291;-1.967706;0.282885;2.372392;-1.659948;-7.264235;-0.540404;-0.080531;0.316379;1;0;
139;0;0.509678;1.643497;9.522322;-0.471895;2.762958;2.806352;0.070359;-0.302645;-0.632873;1;-0.198442;-0.403051;10.975396;-75.153424;103.991823;38.965922;-0.115723;0.183069;-1.291048;6;8.914782;-2.199605;0.278595;3.751663;-2.570739;-7.448250;-0.554379;-0.098580;0.348201;1;0;
140;0;0.227694;1.874435;9.745132;-0.864559;3.088714;3.732796;0.083722;-0.292777;-0.622562;1;0.215503;-0.459709;11.493568;-80.876525;105.250737;32.129522;-0.063384;0.094662;-1.329178;6;9.256349;-2.493762;-0.434921;5.377777;-3.480953;-7.602600;-0.554591;-0.096101;0.301618;1;0;
141;0;0.461000;2.105000;9.977964;-1.196757;3.323257;4.596245;0.069602;-0.292403;-0.622213;1;0.174885;0.160745;12.342474;-80.352338;106.956711;25.271860;-0.011180;0.156244;-1.334296;6;9.264457;-2.666260;-0.016315;6.722837;-4.757962;-7.876426;-0.527260;-0.145923;0.335325;1;0;
142;0;0.913592;1.931138;9.701882;-0.556211;3.209942;4.009884;0.055481;-0.292028;-0.621864;1;0.462628;0.836220;12.405728;-77.166423;111.481611;18.906921;0.015444;0.234068;-1.354215;6;9.086889;-1.968695;0.043258;7.758464;-5.940838;-8.485749;-0.569125;-0.144883;0.304059;1;0;
143;0;0.684698;1.758979;9.696705;-0.066637;3.183238;3.854705;0.098972;-0.299866;-0.647648;1;-0.115421;1.456886;12.337521;-72.770387;118.954783;13.836361;0.016624;0.238356;-1.411614;6;9.146310;-2.143058;0.043616;8.453035;-7.214484;-9.307325;-0.582754;-0.129721;0.318679;1;0;
144;0;0.451144;1.873063;9.465321;0.240139;3.402918;3.581387;0.056624;-0.316042;-0.629108;1;0.002343;1.344104;12.453123;-64.956579;125.605886;9.870256;0.069194;0.256120;-1.442420;6;8.962099;-2.376688;-0.380022;9.127599;-8.012062;-8.847551;-0.554729;-0.113120;0.317983;1;0;
145;0;0.626289;1.816221;9.638979;0.604041;3.353255;2.690179;0.069616;-0.309702;-0.604721;1;0.173962;1.907086;12.457224;-52.510480;127.403231;7.462692;0.120802;0.255349;-1.429173;6;8.974203;-2.373968;0.278954;9.684890;-8.169625;-8.207041;-0.554867;-0.130139;0.334348;1;0;
146;0;0.566600;2.102987;9.525366;0.511487;3.448497;2.385319;0.071131;-0.330188;-0.626042;1;0.749400;2.018670;12.469408;-41.166569;125.173603;4.952524;0.186128;0.287436;-1.446909;6;9.380153;-2.608948;-0.133680;9.687542;-8.174669;-7.718051;-0.554170;-0.082388;0.347364;1;0;
147;0;0.455681;1.759145;9.692251;0.542181;3.761517;1.899637;0.069216;-0.278632;-0.625629;1;1.202324;1.566831;12.082222;-30.632310;119.967656;1.518082;0.276664;0.286890;-1.434490;6;9.144514;-2.317781;-0.076939;9.875820;-7.993943;-7.383424;-0.555009;-0.128486;0.303292;1;0;
148;0;0.459969;1.989876;9.920628;0.147240;4.093877;2.243518;0.083337;-0.279006;-0.625978;1;1.483113;1.453347;11.748334;-22.308464;113.389828;-2.609978;0.289571;0.331854;-1.423426;6;8.730166;-2.259007;-0.144302;9.531789;-8.141168;-8.053818;-0.582195;-0.098988;0.348061;1;0;
149;0;0.503447;2.561355;9.241918;-0.245269;4.481790;3.109641;0.083737;-0.310077;-0.605071;1;1.702495;1.452489;11.243414;-18.640781;107.488478;-6.796672;0.367722;0.333376;-1.439431;6;8.897445;-2.319713;-0.680410;9.563303;-7.862928;-8.330308;-0.568495;-0.114977;0.348968;1;0;
150;0;0.630287;2.449043;9.869046;-0.362839;4.998782;3.547724;0.069602;-0.292403;-0.622213;1;1.644583;1.001905;11.185186;-15.554285;102.153909;-9.775887;0.380327;0.317059;-1.424353;6;9.074494;-2.320118;-0.677108;9.008814;-7.990113;-8.052645;-0.555009;-0.128486;0.303292;1;0;
151;0;0.455929;1.414496;9.690803;-0.048857;5.886203;4.021251;0.085623;-0.327034;-0.640467;1;1.423884;1.059046;11.633514;-10.176987;97.387133;-10.805466;0.405544;0.344634;-1.383862;6;9.062814;-2.032210;-1.274941;8.759486;-8.327467;-8.050132;-0.568566;-0.114150;0.333440;1;0;
152;0;0.221096;1.758104;9.403531;0.412676;6.133503;4.085276;0.083722;-0.292777;-0.622562;1;1.806269;0.437802;10.621942;-3.477721;92.260438;-10.481152;0.457077;0.328542;-1.369612;6;9.492278;-2.436226;-0.430272;8.238424;-8.552609;-7.160901;-0.554796;-0.130965;0.349875;1;0;
153;0;0.228724;1.989559;9.802468;1.574034;6.336191;2.950538;0.055853;-0.288500;-0.635940;1;1.457681;0.212985;10.444580;1.062012;84.959106;-9.871934;0.457152;0.343863;-1.370616;6;9.426950;-2.088871;-0.729424;8.206003;-9.201684;-6.515901;-0.540959;-0.129935;0.334418;1;0;
154;0;0.338862;1.873628;9.576800;1.601498;6.564662;1.788807;0.070759;-0.333716;-0.611966;1;2.427292;0.492473;10.068892;2.022734;75.558592;-9.255647;0.496445;0.300270;-1.397131;6;9.732185;-2.668329;-0.247139;8.850833;-9.753086;-6.209991;-0.513423;-0.144893;0.319867;1;0;
155;0;0.682471;1.758497;9.582998;2.269561;6.460531;0.405144;0.085609;-0.309734;-0.657959;1;1.912722;0.549916;10.227978;1.914627;64.760219;-7.945084;0.547689;0.343316;-1.358196;6;9.151542;-2.025670;0.343645;8.998115;-10.049897;-7.034262;-0.554517;-0.115599;0.364566;1;0;
156;0;0.338862;1.873628;9.576800;2.751739;6.330024;-1.438446;0.085223;-0.295963;-0.661374;1;2.301820;0.210609;9.556480;2.176665;53.991472;-5.863225;0.572020;0.367676;-1.274656;6;9.262817;-2.434203;-0.075233;9.520080;-10.136938;-7.310787;-0.554450;-0.097754;0.332673;1;0;
157;0;0.622949;1.815497;9.468420;2.262276;6.888542;-2.102662;0.084108;-0.306548;-0.619146;1;2.767394;0.097276;9.792615;1.441696;44.986590;-3.672126;0.545993;0.352205;-1.273101;6;9.392414;-2.199449;0.586933;10.286130;-10.125025;-8.199886;-0.541239;-0.145301;0.319727;1;0;
158;0;-0.057589;2.047208;9.797142;2.319502;6.806717;-2.993540;0.042132;-0.319196;-0.614683;1;3.047968;0.096452;9.458822;-0.133286;37.875479;-2.141069;0.546068;0.367526;-1.274105;6;8.846247;-2.840779;-0.324294;11.608965;-10.207607;-8.632134;-0.527051;-0.129731;0.334488;1;0;
159;0;0.281400;2.160877;9.576893;2.377828;6.533901;-3.304827;0.070731;-0.299117;-0.646949;1;2.694437;-0.072225;9.054949;-2.242647;29.965291;-1.389082;0.571204;0.319571;-1.242946;6;9.498321;-2.667294;-0.131727;12.720290;-10.361281;-8.177012;-0.582266;-0.098162;0.332533;1;0;
160;0;0.574436;2.047235;9.923096;2.778258;7.155944;-3.786567;0.069988;-0.306174;-0.618797;1;3.563077;-0.242643;9.299499;-3.998761;20.565493;-1.946396;0.584035;0.349215;-1.230879;6;9.199824;-2.144429;-0.254818;14.322308;-10.787523;-7.814048;-0.527118;-0.147576;0.366381;1;0;
161;0;0.917963;2.046986;9.929777;3.425388;8.494632;-5.024090;0.084851;-0.299492;-0.647298;1;3.561091;-0.468060;9.186030;-4.433472;10.515283;-3.711398;0.637195;0.369123;-1.290385;6;9.094281;-2.780523;0.339331;15.744167;-10.664801;-7.361368;-0.554517;-0.115599;0.364566;1;0;
162;0;0.572375;1.816986;9.808425;2.087343;10.962087;-6.329569;0.083722;-0.292777;-0.622562;1;3.403139;0.039854;9.919145;-3.008662;0.890652;-6.087214;0.622888;0.334119;-1.230703;6;9.861917;-2.491651;0.414780;16.771462;-10.493377;-5.837843;-0.540680;-0.114568;0.349109;1;0;
163;0;0.917880;2.161869;9.930260;-1.451582;15.280404;-9.132112;0.042132;-0.319196;-0.614683;1;3.399166;-0.410980;9.692207;0.211946;-8.347625;-7.872002;0.649430;0.336413;-1.259954;6;9.445036;-3.711786;0.042443;17.338088;-10.109818;-4.283081;-0.526910;-0.131383;0.365544;1;0;
164;0;1.152134;2.622442;10.220910;-12.365957;22.192146;-13.282147;0.057353;-0.291686;-0.674752;1;3.508384;0.151920;9.468541;4.049807;-17.495628;-8.268146;0.610282;0.350437;-1.245781;6;9.915680;-3.074030;0.053966;17.129945;-9.752684;-3.397736;-0.526910;-0.131383;0.365544;1;0;
165;0;0.648435;1.993370;10.776765;-26.104962;33.676166;-17.993922;0.098586;-0.286095;-0.651063;1;3.277021;0.095974;9.407018;6.448218;-25.651867;-8.439789;0.571059;0.349140;-1.230604;6;9.679460;-3.480269;-0.012073;17.256965;-9.541909;-3.032457;-0.526563;-0.098172;0.348342;1;0;
166;0;0.197779;2.569806;11.168242;-36.724498;43.877833;-22.214226;0.113835;-0.293184;-0.676149;1;3.662924;-0.468797;8.565412;5.311670;-30.077646;-9.162910;0.609767;0.363613;-1.218085;6;10.034948;-3.132129;0.115827;17.406014;-9.935212;-3.397865;-0.541026;-0.147780;0.366311;1;0;
167;0;1.220482;2.682254;10.790796;-49.434914;57.689202;-25.879163;0.111949;-0.276227;-0.640752;1;3.054097;-0.579324;9.684811;5.464051;-32.710156;-9.620544;0.584180;0.319646;-1.243222;6;9.975642;-3.480697;0.053336;17.987296;-10.855775;-2.906582;-0.527193;-0.128078;0.303432;1;0;
168;0;0.636601;1.416301;10.148968;-55.045302;65.178594;-30.127497;0.098600;-0.303395;-0.633572;1;3.222843;-0.410798;9.518662;10.689763;-36.892469;-7.099228;0.623409;0.381152;-1.248064;6;9.853633;-3.190789;-0.127349;18.928682;-12.563335;-3.085215;-0.554725;-0.131791;0.365403;1;0;
169;0;0.592169;2.165978;10.833229;-63.283634;73.787340;-33.920734;0.153939;-0.280879;-0.627724;1;-6.523200;46.557235;39.700596;-311.207849;-167.721707;-35.199985;0.596866;0.378859;-1.218813;6;9.693921;-3.070276;0.828354;19.932315;-14.240700;-3.203092;-0.540884;-0.149432;0.397366;1;0;
170;0;0.656969;2.512274;11.233762;-72.468842;79.907673;-32.751863;0.168446;-0.295025;-0.624658;1;-12.098042;-20.442364;1.592920;205.319921;-138.438736;33.698073;0.558899;0.397170;-1.262038;6;10.108175;-2.141263;1.019734;20.732892;-14.639228;-2.837343;-0.541093;-0.165625;0.398203;1;0;
171;0;0.258415;2.513047;11.339673;-71.863051;87.983761;-32.070154;0.168031;-0.246655;-0.663057;1;-11.342346;5.414172;4.292464;149.600044;-165.022984;39.061866;0.559409;0.323783;-1.300069;6;10.631233;-1.505125;0.672916;24.698544;-12.238935;-2.893722;-0.513352;-0.145719;0.335395;1;0;
172;0;0.047711;1.827774;12.241973;-68.207654;96.627194;-28.719402;0.126441;-0.273073;-0.655178;1;-2.328220;5.506626;0.688714;57.574929;-202.655754;90.288507;0.545397;0.289852;-1.254737;6;11.347035;-0.517228;1.229486;25.719938;-7.675309;-3.163698;-0.527118;-0.147576;0.366381;1;0;
173;0;0.405879;1.600896;12.986779;-57.846098;106.143704;-21.079707;0.169932;-0.280912;-0.680961;1;1.489264;6.695086;15.206552;9.919590;-226.314236;70.837004;0.480737;0.275228;-1.266704;6;11.853566;-0.349654;-0.077820;34.399430;-2.172693;-2.854643;-0.541026;-0.147780;0.366311;1;0;
174;0;-0.056445;1.370496;12.749493;-38.493912;115.138631;-17.983325;0.182166;-0.264329;-0.645914;1;4.680588;5.899095;13.687678;38.054392;-186.490407;30.588810;0.454930;0.245509;-1.278496;6;12.355344;-1.926339;-1.871798;41.381266;5.445583;5.274647;-0.513140;-0.148198;0.381979;1;0;
175;0;0.236840;0.912204;13.094249;-32.702128;123.065403;-15.662780;0.225271;-0.258396;-0.675114;1;3.115612;4.549551;13.030863;23.760282;-142.401555;-23.088430;0.416448;0.276996;-1.294025;6;12.883707;-2.625456;-2.104488;39.612389;16.065332;15.989417;-0.554517;-0.115599;0.364566;1;0;
176;0;0.350028;1.199088;13.040829;-25.583764;134.038779;-15.995552;0.197773;-0.250590;-0.702567;1;-0.993586;-0.344785;11.468275;16.760310;-119.413330;-46.817426;0.429279;0.306640;-1.281959;6;13.411322;-1.581550;-2.150041;23.372739;27.512312;12.784130;-0.568495;-0.114977;0.348968;1;0;
177;0;0.359184;0.856369;13.494206;-18.736415;145.433434;-15.707270;0.253126;-0.245374;-0.679228;1;-3.340910;-3.269269;11.756082;14.698839;-102.385874;-27.106329;0.391011;0.263670;-1.321170;6;12.701893;-1.522100;-2.222906;8.195161;35.327288;0.300935;-0.540329;-0.100029;0.379327;1;0;
178;0;-0.106853;1.142219;13.088533;-13.870169;158.130225;-14.625332;0.280610;-0.235881;-0.669266;1;-0.985120;4.561402;17.700339;31.681344;-87.367148;8.169123;0.377520;0.276771;-1.293198;6;11.128919;-2.269240;-1.237415;0.556096;31.793648;-15.637945;-0.541235;-0.163972;0.367148;1;0;
179;0;-0.369120;0.285870;14.273261;-8.435193;173.187766;-12.985236;0.308865;-0.253929;-0.652473;1;0.305956;-2.094601;10.191899;129.362320;-59.209118;15.309959;0.351637;0.231732;-1.303985;6;9.142293;-2.783131;-0.258638;14.823125;16.067385;-28.265385;-0.540680;-0.114568;0.349109;1;0;
180;0;-0.710047;-0.230373;14.378114;-0.219424;190.224840;-8.806026;0.308465;-0.222859;-0.673381;1;0.562985;0.100707;8.953722;96.476103;-46.082960;3.174989;0.364538;0.216486;-1.303258;6;7.214507;-4.168791;0.597718;26.195700;5.720743;-8.822089;-0.554450;-0.097754;0.332673;1;0;
181;0;-0.800343;-1.374055;15.564976;12.317934;206.903055;-3.817127;0.324472;-0.240190;-0.709126;1;-0.231577;-2.430036;11.935353;66.161574;-43.830612;-6.198731;0.311673;0.197650;-1.258102;6;8.094889;-2.080079;0.623125;21.541342;8.297681;21.410676;-0.555147;-0.145505;0.319657;1;0;
182;0;-0.494277;-1.025270;16.595347;26.512481;225.110449;-0.402985;0.363090;-0.241999;-0.604398;1;-0.347678;-1.922846;11.933362;72.576864;-14.391082;30.014707;0.298987;0.138437;-1.282511;6;9.858176;0.064188;0.545472;15.129479;9.106019;14.980335;-0.541168;-0.146127;0.335255;1;0;
183;0;-0.090901;0.009111;16.778044;42.993704;243.575495;0.064618;0.407738;-0.291150;-0.619934;1;-0.634185;1.568133;9.609243;96.912287;-7.952185;44.588606;0.326125;0.203085;-1.330126;6;10.745444;-0.808977;0.558270;19.792132;6.581881;-2.599029;-0.555147;-0.145505;0.319657;1;0;
184;0;-0.752054;-0.386933;18.070614;59.158792;259.054520;-4.453028;0.406580;-0.249837;-0.630181;1;0.026833;1.960015;8.264732;64.480449;-7.935518;25.879526;0.311963;0.138512;-1.282787;6;10.721774;-1.046721;-0.760671;15.454301;9.686739;0.335872;-0.527260;-0.145923;0.335325;1;0;
185;0;-1.364280;-1.589131;18.906095;78.768574;276.036475;-7.514788;0.461605;-0.300047;-0.540291;1;-0.763044;1.793149;8.983980;26.043973;-6.156118;7.307159;0.298472;0.151614;-1.254815;6;11.051722;0.341597;-1.886366;8.910229;12.133145;1.111973;-0.568917;-0.128690;0.303222;1;0;
186;0;-0.894499;0.653652;19.606651;85.513710;289.416359;-4.218938;0.506581;-0.293772;-0.622378;1;-0.635825;1.793408;9.552793;11.384823;-5.780326;1.071773;0.338060;0.109093;-1.295681;6;11.388617;0.162603;-2.839015;12.801274;12.443033;-3.854728;-0.554725;-0.131791;0.365403;1;0;
187;0;-2.038226;0.310073;19.639786;91.918957;303.640844;-10.630491;0.547871;-0.357378;-0.528723;1;-0.344394;1.173328;9.671595;5.539700;-6.603349;-1.653984;0.285861;0.107721;-1.280228;6;11.394254;0.105763;-2.539728;13.283904;15.756604;-10.565172;-0.582124;-0.099815;0.363589;1;0;
188;0;-2.782445;-1.355434;19.561460;96.948429;311.530016;-13.951656;0.533365;-0.343233;-0.531789;1;-0.751087;1.230271;9.493262;0.053650;-5.889360;-4.271671;0.311888;0.123192;-1.281783;6;10.976895;0.512498;-2.725421;13.841343;18.576346;-19.778953;-0.526563;-0.098172;0.348342;1;0;
189;0;-4.938676;-1.419544;17.587014;108.727935;325.079207;-15.574652;0.615088;-0.339108;-0.456261;1;-0.973772;1.061995;9.828121;-4.698409;-5.662459;-5.999594;0.312698;0.111087;-1.323829;6;9.804295;0.981785;-2.266197;12.940325;21.101298;-24.646371;-0.554517;-0.115599;0.364566;1;0;
190;0;-5.145518;1.802655;18.846842;111.330066;301.847275;-9.672816;0.628837;-0.343011;-0.442534;1;-1.140208;0.949894;10.107598;-4.607828;-5.786765;-5.569169;0.312333;0.154905;-1.298140;6;9.277687;0.925913;-2.036720;12.051743;21.149495;-23.696118;-0.541168;-0.146127;0.335255;1;0;
191;0;-3.076186;3.456552;16.450356;115.476804;279.353543;-16.982293;0.671198;-0.344135;-0.443581;1;-0.853267;0.780316;10.056861;-4.355210;-5.297000;-4.947541;0.286011;0.138362;-1.282235;6;8.404840;1.279361;-1.332861;9.758069;20.018395;-18.640396;-0.568637;-0.113324;0.317912;1;0;
192;0;-0.265296;1.202680;13.767671;112.052587;261.383918;-17.663544;0.670484;-0.385790;-0.380446;1;-0.620025;1.118011;10.231900;-3.581203;-5.078175;-4.081563;0.286156;0.108793;-1.294578;6;8.418740;1.456803;-0.553329;5.900075;17.589597;-15.833999;-0.554938;-0.129313;0.318820;1;0;
193;0;3.071082;-0.659649;8.709980;116.772640;234.165736;-11.924501;0.754078;-0.381323;-0.357805;1;-1.019811;0.724546;10.336384;-2.559415;-4.738382;-2.474312;0.299502;0.125261;-1.310207;6;8.185126;0.876831;-0.500297;3.941282;13.856347;-13.425468;-0.568495;-0.114977;0.348968;1;0;
194;0;16.063195;-6.222652;-0.267284;124.689425;171.077405;-0.000495;0.725123;-0.422229;-0.293971;1;-0.910293;0.498772;10.055415;-0.889634;-4.508996;-1.484193;0.312629;0.155976;-1.312490;6;8.541849;1.167142;-0.312737;1.069004;9.849589;-8.536877;-0.610078;-0.117242;0.379813;1;0;
195;0;7.084849;-2.109969;6.110910;9.199192;71.670710;-10.055611;0.739229;-0.405304;-0.311812;1;-0.332414;1.230133;10.238039;-0.144430;-4.193737;-1.357146;0.299502;0.125261;-1.310207;6;9.074210;0.643243;-0.305058;-1.040529;5.457480;-4.565874;-0.568775;-0.130343;0.334277;1;0;
196;0;9.974875;-2.910432;7.527680;11.402744;-5.694209;-10.890165;0.780847;-0.413485;-0.284708;1;-1.198659;0.780963;10.049607;0.387981;-3.634085;-1.505293;0.286231;0.124114;-1.295581;6;9.412185;-0.000359;-1.259685;-3.913860;2.291349;-1.086831;-0.554938;-0.129313;0.318820;1;0;
197;0;8.471618;-2.682725;6.760605;18.466675;-28.180701;-17.379396;0.780862;-0.430784;-0.267216;1;-0.856678;0.667513;9.886847;0.387983;-3.605432;-1.196728;0.273255;0.124039;-1.295306;6;9.817595;-0.003035;-1.671331;-5.536502;-0.316743;-0.854569;-0.583171;-0.162106;0.320354;1;0;
198;0;7.335407;-2.003013;4.297661;8.385269;-40.173044;-21.195174;0.822466;-0.421665;-0.257604;1;-0.740985;1.005328;9.946189;0.544205;-3.508456;-1.658058;0.313289;0.113231;-1.352528;6;10.283236;-0.528530;-2.084100;-6.607876;-2.946768;-1.266014;-0.555076;-0.146331;0.335185;1;0;
199;0;7.368905;-1.491147;3.107032;-14.014674;-62.444258;-15.634389;0.809474;-0.428005;-0.281991;1;-0.681672;0.723615;10.003800;-0.692848;-3.645389;-1.876211;0.286086;0.153683;-1.283239;6;10.746852;-0.182885;-2.493162;-7.159505;-4.107257;-4.589753;-0.555493;-0.178716;0.336859;1;0;
200;0;7.223327;-0.738492;4.471302;-29.233521;-88.666294;-8.686481;0.796083;-0.403274;-0.327285;1;-0.562460;1.117903;10.233108;-1.772863;-3.566507;-1.968780;0.299653;0.155901;-1.312214;6;10.689207;-0.298655;-2.434850;-6.321236;-4.398074;-8.717170;-0.568566;-0.114150;0.333440;1;0;
201;0;7.391211;0.007400;4.307221;-33.225985;-112.732312;-3.116182;0.809460;-0.410706;-0.299482;1;-0.399327;1.060870;9.783571;-2.606897;-3.605139;-2.370598;0.299427;0.109940;-1.309203;6;9.748540;0.052951;-2.211346;-6.704950;-4.155968;-11.559053;-0.596800;-0.146944;0.334974;1;0;
202;0;6.648840;0.410512;4.408141;-34.656597;-135.430467;4.707525;0.781948;-0.385600;-0.344428;1;-0.227431;0.215494;9.673207;-2.511563;-3.389707;-2.306724;0.273475;0.109790;-1.308652;6;9.748425;0.575882;-2.149214;-7.298887;-4.484148;-12.563813;-0.582403;-0.115181;0.348898;1;0;
203;0;6.773039;0.872132;4.923976;-32.900561;-154.630139;14.326478;0.825824;-0.407210;-0.366795;1;-0.907098;0.724236;10.225523;-2.506883;-2.993068;-1.994496;0.299357;0.154830;-1.297864;6;9.647440;0.347557;-1.253800;-7.603881;-4.895202;-11.368909;-0.596311;-0.115385;0.348828;1;0;
204;0;5.229479;0.758851;5.007135;-31.286200;-168.598445;26.238016;0.826939;-0.396625;-0.409023;1;-0.337380;0.666591;9.954367;-1.729222;-2.583410;-2.174765;0.286156;0.108793;-1.294578;6;9.062105;0.640523;-0.964034;-7.749361;-4.819121;-9.901852;-0.555218;-0.144679;0.304129;1;0;
205;0;4.259867;0.243305;5.156593;-33.343168;-178.966873;41.896997;0.841445;-0.410770;-0.405957;1;-0.624992;0.554468;9.948227;-1.048847;-2.542511;-2.420435;0.312478;0.125336;-1.310483;6;8.949960;0.002946;-0.729327;-7.089591;-5.305881;-6.968080;-0.596937;-0.163962;0.351339;1;0;
206;0;3.115560;0.703908;5.193107;-40.039282;-187.881814;60.350595;0.799826;-0.402590;-0.433061;1;-0.801638;0.723641;9.774824;-0.582900;-2.351633;-2.572301;0.286526;0.125186;-1.309931;6;9.069363;-0.113229;-0.667714;-6.993488;-6.895814;-4.026934;-0.582541;-0.132200;0.365263;1;0;
207;0;1.980617;0.534583;5.681791;-47.901587;-197.488890;79.652568;0.814318;-0.399436;-0.447486;1;-0.685059;1.230495;9.890948;0.097041;-2.398906;-3.404578;0.325605;0.156051;-1.312766;6;8.952276;-0.519491;-0.671645;-6.061031;-9.083365;-5.120094;-0.555493;-0.178716;0.336859;1;0;
208;0;2.249840;1.921941;7.795601;-49.760252;-205.331037;94.948526;0.746331;-0.390165;-0.526780;1;-0.625230;0.047446;9.891161;0.436722;-2.366747;-2.972394;0.312403;0.110015;-1.309479;6;9.253574;0.120401;-0.244075;-5.685072;-10.804299;-7.160854;-0.582821;-0.147566;0.350572;1;0;
209;0;1.868770;2.386106;8.813093;-42.581075;-211.615401;98.657155;0.761937;-0.376426;-0.583433;1;-0.732415;0.949330;10.342619;0.622984;-2.273808;-2.755525;0.299797;0.126332;-1.324557;6;8.777853;-0.227964;-0.493990;-3.980113;-11.346785;-10.312196;-0.610983;-0.181185;0.367634;1;0;
210;0;1.986661;2.329305;8.985638;-33.038927;-217.526324;94.825116;0.733682;-0.358377;-0.600226;1;-0.855684;0.780222;9.943581;0.653020;-2.363802;-3.003019;0.260204;0.108643;-1.294026;6;9.070733;-0.229134;-0.608301;-3.151672;-11.429249;-10.926008;-0.569330;-0.179747;0.352316;1;0;
211;0;2.607386;2.556685;8.544027;-30.330016;-224.861284;86.269184;0.708856;-0.412370;-0.638753;1;-0.688494;0.498009;9.663773;0.466877;-2.398832;-2.695238;0.286602;0.140506;-1.310935;6;9.015133;-0.751189;-0.491813;-0.516850;-11.480900;-13.899608;-0.582959;-0.164585;0.366937;1;0;
212;0;2.913411;2.962911;9.574639;-34.838699;-231.594515;73.237198;0.624890;-0.420365;-0.647318;1;-0.572023;1.061193;9.779944;0.035998;-2.252603;-2.447507;0.286752;0.171147;-1.312942;6;8.721443;-0.401563;-0.376018;0.629029;-10.430836;-14.489397;-0.583376;-0.196969;0.368611;1;0;
213;0;2.638646;2.448557;10.135431;-41.259171;-237.709544;56.448893;0.626362;-0.388953;-0.721113;1;-1.034425;0.780308;9.656757;-0.612354;-2.287273;-3.095760;0.312108;0.108943;-1.295129;6;8.954767;-0.170293;-0.490441;1.372816;-9.286660;-15.444887;-0.582608;-0.150045;0.397156;1;0;
214;0;2.535148;2.623377;10.702458;-46.700055;-242.532110;37.316175;0.570223;-0.349328;-0.768776;1;-0.633107;1.004828;9.608769;-0.028325;-2.467038;-2.603831;0.273406;0.154679;-1.297313;6;9.063280;-0.811872;-1.090029;2.004793;-7.109231;-15.793716;-0.597355;-0.196347;0.353013;1;0;
215;0;2.774270;2.510500;11.218108;-50.855286;-246.748263;16.776831;0.486614;-0.336495;-0.808908;1;-0.856116;1.005544;9.943771;-0.673636;-2.256788;-3.187990;0.260204;0.108643;-1.294026;6;8.473679;-0.577970;-1.040137;2.396223;-4.882200;-15.102901;-0.597213;-0.198000;0.384069;1;0;
216;0;3.022134;2.629318;12.189547;-54.212813;-251.119449;-3.340494;0.459873;-0.338932;-0.847022;1;-0.734617;0.836574;10.229245;-0.396719;-2.345055;-3.219472;0.298692;0.137365;-1.268161;6;8.651963;-0.636204;-0.977176;1.496467;-2.667047;-13.704483;-0.541723;-0.195531;0.353294;1;0;
217;0;2.011970;2.117433;13.190688;-61.537809;-257.222967;-16.146450;0.359529;-0.333124;-0.805766;1;-0.849078;1.118489;10.283703;-0.029457;-2.587486;-2.944136;0.286306;0.139434;-1.296585;6;9.297704;-0.580355;-1.144545;-0.146206;-0.697350;-12.485547;-0.596378;-0.133230;0.380720;1;0;
218;0;0.356170;1.947275;13.385085;-74.806418;-266.748058;-14.606703;0.360629;-0.305240;-0.865485;1;-0.623328;0.948877;10.061838;0.188557;-2.432421;-2.788279;0.299502;0.125261;-1.310207;6;8.935904;-0.581276;-1.570496;-2.413216;0.508565;-11.566294;-0.569055;-0.145709;0.319587;1;0;
219;0;-1.218211;2.241916;14.833294;-89.942403;-276.508827;-3.956581;0.289955;-0.216870;-0.951198;1;-0.964448;0.611683;10.224219;-0.212794;-2.407455;-2.695870;0.286306;0.139434;-1.296585;6;8.705207;-0.521423;-1.275116;-4.464333;1.528890;-10.371888;-0.624612;-0.166023;0.382254;1;0;
220;0;-1.905979;2.599408;17.719774;-94.716973;-283.608467;9.588900;0.245736;-0.233388;-0.879771;1;-1.141525;1.006177;10.051006;-0.366836;-2.378549;-2.726535;0.313069;0.127479;-1.339182;6;8.700109;-0.696888;-1.575392;-6.763242;1.805350;-8.317322;-0.583167;-0.180777;0.367774;1;0;
221;0;-2.022565;3.300893;20.561984;-84.161212;-287.716489;17.955502;0.176648;-0.252001;-0.899345;1;-0.850934;1.456425;10.227348;-0.891881;-2.355754;-2.541763;0.298761;0.092476;-1.279500;6;8.700649;-0.929192;-1.576381;-8.946824;1.321293;-6.626246;-0.583167;-0.180777;0.367774;1;0;
222;0;-1.944978;2.903104;21.584764;-59.035992;-290.025461;17.477764;0.119351;-0.171062;-0.957255;1;-0.515343;0.892046;9.724371;-0.681472;-2.870297;-3.163268;0.337695;0.152911;-1.269992;6;8.526227;-0.637665;-1.398725;-10.815888;1.323368;-4.510743;-0.611121;-0.198204;0.383999;1;0;
223;0;-2.137897;2.898644;20.501215;-35.091093;-289.861708;10.143825;0.062140;-0.193920;-0.910215;1;-0.509645;0.441592;9.950550;0.426350;-3.251214;-3.721066;0.272885;0.107646;-1.279952;6;9.056677;-0.813355;-1.449470;-13.215777;1.646792;-4.075729;-0.569535;-0.214610;0.400574;1;0;
224;0;-2.668859;3.010523;19.695733;-24.794247;-287.178224;-2.446476;0.019736;-0.140898;-0.961642;1;-0.392420;0.610463;10.066390;0.972463;-4.040659;-3.851788;0.273626;0.140431;-1.310659;6;8.693351;-1.105150;-1.996471;-15.733529;1.742090;-2.325025;-0.597071;-0.199652;0.415124;1;0;
225;0;-5.023065;2.506146;22.205183;-35.889621;-283.415530;-15.848086;-0.008505;-0.140149;-0.960944;1;-0.857432;1.061827;9.887179;0.411187;-4.418320;-3.455233;0.247818;0.110712;-1.322450;6;8.360568;-1.273871;-0.865584;-18.648739;2.171174;-0.452200;-0.568838;-0.166859;0.413591;1;0;
226;0;-5.003819;1.796017;17.315149;-29.988733;-270.292633;-17.430927;-0.080208;-0.166160;-0.899478;1;-0.856893;0.780174;9.886942;3.427991;-5.266599;-3.862002;0.260725;0.155676;-1.311387;6;8.993259;-0.814209;-1.690198;-18.793427;2.432058;0.891848;-0.569259;-0.180573;0.367844;1;0;
227;0;-9.742161;1.227936;17.902553;-69.919781;-258.794681;-16.638585;-0.108450;-0.165411;-0.898780;1;-0.964987;0.893335;10.224456;2.463075;-5.774437;-3.097131;0.273550;0.125110;-1.309655;6;8.586033;-1.451111;-1.460993;-21.584322;4.070678;1.199768;-0.597493;-0.213366;0.369378;1;0;
228;0;-10.569468;0.775781;19.475807;-88.349341;-242.245657;-4.876977;-0.138605;-0.113106;-0.897669;1;-0.509730;1.117605;10.007759;4.825677;-6.945466;-2.305348;0.247153;0.093248;-1.292747;6;8.344176;-1.800511;-1.826320;-24.621010;6.110517;1.078779;-0.597351;-0.215019;0.400434;1;0;
229;0;-12.517315;0.891832;19.381578;-92.134933;-223.019034;7.253164;-0.210366;-0.069920;-0.906170;1;-0.560173;0.554645;10.289274;3.585759;-7.326523;-2.710898;0.300168;0.142725;-1.339910;6;8.108402;-1.451267;-1.769331;-25.885173;8.376210;3.395366;-0.611263;-0.196551;0.352943;1;0;
230;0;-14.548974;0.772368;17.920796;-84.897959;-199.616699;16.321411;-0.224472;-0.086845;-0.888329;1;-0.558856;0.498362;10.345866;2.923385;-8.436530;-3.061575;0.260279;0.123964;-1.295030;6;8.230566;-1.334396;-1.527008;-28.151457;10.950821;8.037057;-0.596937;-0.163962;0.351339;1;0;
231;0;-16.394675;1.677518;14.308394;-85.758184;-176.311684;25.042953;-0.224443;-0.121444;-0.853346;1;-0.674850;0.949222;10.343828;1.273513;-11.947494;-3.930164;0.273550;0.125110;-1.309655;6;8.575839;-1.802040;-2.061545;-30.522224;12.492267;11.981215;-0.597075;-0.180981;0.367704;1;0;
232;0;-17.351826;3.048093;12.249658;-94.499641;-152.324108;32.540692;-0.283983;-0.044376;-0.844292;1;-1.060129;0.556327;11.127988;-1.473218;-16.584146;-3.608540;0.261240;0.142500;-1.339083;6;8.874106;-1.279042;-1.814191;-32.101921;13.280324;15.100928;-0.597284;-0.197174;0.368541;1;0;
233;0;-18.492010;3.969193;12.515515;-96.200517;-123.818458;37.515747;-0.325573;-0.070794;-0.836413;1;-0.677028;1.456149;10.287615;-3.633938;-25.835226;0.058758;0.247604;0.185170;-1.298769;6;8.528948;-1.334330;-1.341785;-33.226893;13.432661;17.733029;-0.568976;-0.183878;0.429956;1;0;
234;0;-19.969905;4.547099;13.057508;-77.862258;-92.104629;41.350749;-0.311853;-0.040098;-0.857669;1;-1.135373;0.950084;10.334156;-11.647761;-31.532650;2.246123;0.234327;0.123813;-1.294478;6;8.651112;-1.217459;-1.099462;-33.672463;13.926787;20.085982;-0.583167;-0.180777;0.367774;1;0;
235;0;-21.739225;4.549590;13.307255;-44.567247;-60.757061;45.290043;-0.326717;-0.046781;-0.829168;1;-0.091703;1.455451;10.752821;-16.863733;-35.729389;5.468007;0.222017;0.141203;-1.323906;6;9.125422;-1.682900;-1.032730;-33.777348;14.108647;23.172879;-0.555982;-0.210275;0.323005;1;0;
236;0;-21.421018;4.141701;12.004626;-7.945520;-30.221420;48.654665;-0.341980;-0.022392;-0.821575;1;-0.674850;0.949222;10.343828;-22.618399;-41.062140;7.814986;0.247598;0.124960;-1.309104;6;8.723023;-2.028186;-0.502754;-33.419397;13.639335;27.270074;-0.596796;-0.165615;0.382395;1;0;
237;0;-21.448897;4.193112;10.583540;13.090543;-0.827730;51.156463;-0.369078;-0.045657;-0.828121;1;-0.371415;1.005630;11.086234;-31.846416;-45.112761;9.000438;0.195845;0.155301;-1.310008;6;9.020730;-1.737739;-0.316295;-32.517794;13.193457;29.286542;-0.555560;-0.196561;0.368752;1;0;
238;0;-18.996356;3.327535;10.116123;23.747131;29.102925;47.841077;-0.326731;-0.029481;-0.846660;1;-0.611694;0.554990;10.571263;-33.581396;-50.464113;7.866843;0.221502;0.154379;-1.296210;6;8.957157;-2.145373;-0.618661;-30.718982;14.111028;29.917617;-0.597075;-0.180981;0.367704;1;0;
239;0;-27.513064;48.584800;47.592467;-11.260866;194.792123;28.068759;-0.353829;-0.052746;-0.853206;1;-0.087692;-0.009095;10.808227;-36.811515;-54.447425;5.666652;0.183390;0.202259;-1.327093;6;9.252798;-1.913496;-0.552263;-30.616420;15.303193;30.033836;-0.583167;-0.180777;0.367774;1;0;
240;0;13.274150;-20.904284;-8.851149;312.207597;241.384455;-91.947859;-0.340094;-0.039349;-0.856971;1;-0.712619;1.344449;11.305824;-34.745916;-59.779108;4.166381;0.209336;0.142199;-1.337980;6;9.416101;-1.684564;-1.266855;-30.987966;15.739613;29.115996;-0.596937;-0.163962;0.351339;1;0;
241;0;20.313537;9.001596;1.129830;107.512228;184.347149;-58.535890;-0.282440;-0.099460;-0.830629;1;-0.225609;1.400961;12.561614;-34.685068;-65.031532;0.692286;0.234478;0.154454;-1.296486;6;9.757013;-1.223486;-1.917251;-33.840914;14.767482;27.480203;-0.596800;-0.146944;0.334974;1;0;
242;0;5.809560;-4.422924;2.268717;20.699362;216.144605;-176.198946;-0.267562;-0.110077;-0.841638;1;-0.851814;0.895409;12.831087;-22.628658;-74.282615;-1.301305;0.195110;0.182726;-1.268966;6;10.111015;-0.236509;-1.786631;-37.303303;11.509584;24.818201;-0.596796;-0.165615;0.382395;1;0;
243;0;-4.931759;12.505091;9.746414;-13.142950;278.997965;-116.696449;-0.196202;-0.122193;-0.854044;1;-0.680134;0.162694;12.720818;-22.703961;-82.713812;-2.186690;0.156552;0.198894;-1.283492;6;11.314812;-1.337956;-0.631089;-36.908423;7.389207;24.072216;-0.582892;-0.146740;0.335044;1;0;
244;0;-5.785889;9.371842;15.683787;-24.004737;260.192772;-81.927685;-0.210709;-0.108047;-0.857111;1;0.154663;-0.401029;14.039979;-16.444565;-93.742303;-6.514671;0.130751;0.229384;-1.284948;6;12.511736;-2.324735;0.165507;-41.235385;2.112888;24.051940;-0.611196;-0.178706;0.321050;1;0;
245;0;-6.505890;5.011408;16.731181;10.002495;225.590957;-22.430057;-0.124856;-0.117009;-0.883942;1;-0.618919;0.782412;12.949107;-10.670951;-108.835835;-9.588638;0.130230;0.182351;-1.267588;6;14.231488;-1.629514;0.739548;-41.763088;-8.382956;27.283146;-0.597638;-0.193042;0.290902;1;0;
246;0;-1.720040;1.198650;12.545919;28.313117;204.243657;23.263777;-0.139749;-0.089093;-0.890424;1;-1.134674;1.459490;13.108715;-16.007620;-120.122253;-6.622321;0.104348;0.137312;-1.278375;6;14.709410;-1.280654;1.109277;-35.147440;-17.000638;31.824693;-0.610637;-0.147974;0.350432;1;0;
247;0;-6.429738;3.156933;26.386016;60.612162;130.593356;49.384446;-0.052739;-0.139367;-0.907008;1;-0.891054;0.163884;13.622216;-18.199739;-136.913181;-5.280357;0.066386;0.215832;-1.311265;6;14.281856;-1.224847;0.323031;-26.216616;-20.865097;30.037700;-0.611054;-0.180359;0.352106;1;0;
248;0;0.466424;-7.590515;12.778723;99.938208;51.076449;-10.375676;-0.039376;-0.129499;-0.896697;1;-0.587189;-0.005030;14.364433;-16.987504;-158.253205;-5.922977;0.104058;0.196450;-1.253690;6;13.967818;-0.647368;-0.638509;-18.018105;-22.355640;26.163327;-0.555076;-0.146331;0.335185;1;0;
249;0;-0.694981;3.309930;9.449084;92.469679;24.880091;-36.667416;-0.040133;-0.119257;-0.886037;1;-1.427140;0.335518;15.479376;-15.175555;-180.944265;-5.746158;0.038958;0.210323;-1.238965;6;13.483469;-0.126075;-1.244156;-9.433463;-24.433822;26.019873;-0.596520;-0.131577;0.349665;1;0;
250;0;-0.743239;1.645856;9.838944;50.582729;22.472127;-12.232015;-0.026356;-0.157758;-0.837327;1;-0.781100;-0.679190;16.001577;-9.303165;-207.452335;-5.973881;0.026202;0.195999;-1.252036;6;13.608239;-0.182938;-0.882761;-2.889984;-23.647582;26.175831;-0.609798;-0.101875;0.394504;1;0;
251;0;0.383330;-1.104164;11.724669;39.342771;12.187114;-17.795542;-0.039733;-0.150327;-0.865130;1;-0.822543;-1.523471;16.679332;3.772926;-233.213505;-3.752955;-0.053060;0.145300;-1.189971;6;11.721808;0.344809;-0.736030;-0.815315;-18.037965;19.722153;-0.568984;-0.146535;0.335114;1;0;
252;0;0.108855;1.701228;9.514769;53.445698;4.507815;-34.094823;-0.053468;-0.163723;-0.861365;1;-0.685259;0.167225;17.872604;15.198703;-249.931927;1.855080;-0.091687;0.206357;-1.193159;6;10.882087;-0.004971;-1.531709;-5.003885;-7.751333;11.374086;-0.596587;-0.149422;0.381558;1;0;
253;0;-0.248199;1.928348;8.826816;40.086952;5.456831;-20.268782;-0.039347;-0.164098;-0.861714;1;0.012409;-0.904158;18.112768;40.207357;-261.869747;11.714289;-0.168732;0.193802;-1.233550;6;10.172137;0.751637;-1.541700;-11.739288;0.609688;7.996399;-0.610078;-0.117242;0.379813;1;0;
254;0;0.288827;1.128377;9.913668;29.076428;4.156525;-13.111872;-0.067588;-0.163349;-0.861015;1;1.281327;-2.202132;18.138273;56.852562;-268.898474;15.295716;-0.144627;0.172200;-1.146999;6;9.998255;0.810860;-1.365034;-18.252565;6.224514;4.080956;-0.596311;-0.115385;0.348828;1;0;
255;0;0.034235;2.616715;8.664720;20.114253;2.032570;-5.667864;-0.053068;-0.194794;-0.840457;1;1.923116;-2.259316;18.548001;71.527636;-270.629405;17.355892;-0.210687;0.167538;-1.088222;6;9.304097;0.931847;-0.598955;-23.241261;6.750962;-1.221489;-0.609940;-0.100223;0.363448;1;0;
256;0;0.917963;2.046986;9.929777;12.025164;3.154381;0.507336;-0.010349;-0.175090;-0.873072;1;2.795490;-2.485922;18.962422;92.925297;-273.412102;14.848333;-0.262666;0.151917;-1.086115;6;8.662197;0.644435;-0.252854;-26.587189;4.903640;-7.129555;-0.568704;-0.131169;0.349805;1;0;
257;0;0.677727;2.159622;9.357275;11.048596;3.294420;1.309785;-0.024455;-0.192015;-0.855231;1;1.728899;-1.752824;17.581928;118.677800;-283.291184;11.657270;-0.302040;0.119979;-1.068931;6;8.668125;0.936299;0.107823;-30.054040;0.815916;-9.389556;-0.596520;-0.131577;0.349665;1;0;
258;0;0.904560;2.101533;9.247782;6.835824;3.665280;4.824019;-0.024827;-0.195543;-0.841155;1;3.791124;-1.759467;14.454840;117.066227;-291.339718;8.709007;-0.368766;0.097852;-0.980450;6;8.304374;0.353876;-0.500321;-32.246836;-3.938210;-8.869956;-0.582191;-0.117660;0.395481;1;0;
259;0;0.739850;1.586131;9.583388;4.991514;3.046585;4.420601;-0.023312;-0.216028;-0.862476;1;4.931360;-1.029706;14.026518;100.244518;-276.519664;6.437955;-0.369137;0.081460;-0.965097;6;8.437657;-0.049712;0.278939;-30.352268;-8.028587;-6.045681;-0.583171;-0.162106;0.320354;1;0;
260;0;0.857658;1.644213;9.756415;4.345400;2.706577;4.324933;-0.067202;-0.177120;-0.857600;1;2.711371;-0.855515;15.168944;82.028221;-261.536860;9.254124;-0.422742;0.029839;-0.889234;6;8.377851;0.763735;0.341207;-26.364193;-10.643228;-0.271409;-0.596658;-0.148596;0.366030;1;0;
261;0;0.799415;1.471689;9.697725;3.824450;2.578784;4.539026;-0.010692;-0.213217;-0.824013;1;3.002773;-1.703301;12.570065;72.535502;-255.641002;4.927368;-0.422667;0.045159;-0.890238;6;8.312907;0.472006;-0.020571;-22.622834;-13.382639;5.657440;-0.596449;-0.132404;0.365193;1;0;
262;0;0.915860;1.874179;9.815347;3.644408;2.911105;4.974284;-0.052325;-0.187737;-0.868609;1;-3.321490;-4.911679;1.734333;47.614519;-221.464151;-20.309434;-0.489028;-0.020785;-0.827446;6;8.306440;0.412447;-0.380260;-19.903653;-16.054404;10.611852;-0.596796;-0.165615;0.382395;1;0;
263;0;0.464672;1.646192;10.146593;3.516633;2.424739;4.445407;-0.010720;-0.178618;-0.858996;1;-12.074482;-7.092471;1.208891;5.157872;-121.400510;-51.716864;-0.503035;0.005493;-0.771778;6;9.080097;0.005395;-0.068150;-16.149393;-17.234778;16.625430;-0.610495;-0.149627;0.381487;1;0;
264;0;0.682223;2.103146;9.584446;3.174982;2.154577;3.736655;0.017521;-0.179367;-0.859695;1;-11.015187;-4.159365;7.970812;5.849896;-53.859203;-67.382080;-0.503110;-0.009827;-0.770775;6;8.726830;0.122605;-0.014352;-11.108254;-16.063334;23.387621;-0.610078;-0.117242;0.379813;1;0;
265;0;0.392569;2.160071;9.408561;3.115870;2.304472;4.045933;-0.039304;-0.215996;-0.809238;1;-13.899909;-3.309208;7.684520;12.371177;36.167489;-68.547015;-0.517267;-0.014190;-0.713100;6;9.022046;0.063854;-0.009097;-6.954249;-12.890241;28.523624;-0.582329;-0.134678;0.411846;1;0;
266;0;0.799166;1.816338;9.699173;2.292359;2.539508;4.665466;-0.010320;-0.209689;-0.838089;1;-11.300680;-3.482718;8.135256;36.665056;88.890689;-64.242556;-0.516972;-0.013118;-0.727450;6;9.906998;-0.286875;-0.053980;-3.969282;-9.170638;27.730810;-0.568704;-0.131169;0.349805;1;0;
267;0;0.572168;2.104194;9.809632;2.565907;2.547401;4.082131;-0.053053;-0.212093;-0.822965;1;-10.063629;-4.164625;4.027801;50.253775;115.368811;-66.372485;-0.464408;-0.055563;-0.768591;6;10.674478;-0.404782;-0.040169;-2.835175;-6.049100;22.025974;-0.596170;-0.117037;0.379883;1;0;
268;0;0.690349;1.645302;9.980487;2.046940;2.883363;4.058418;0.002643;-0.168750;-0.848685;1;-8.366049;-5.239371;2.590537;31.758508;128.895725;-81.171378;-0.450697;-0.082913;-0.809909;6;11.037669;-0.054911;0.507079;-2.315517;-2.378403;10.330041;-0.596796;-0.165615;0.382395;1;0;
269;0;0.399623;1.644544;9.747508;2.473954;2.640905;3.930580;-0.038933;-0.212468;-0.823314;1;-8.369891;-5.126852;2.420713;4.399160;135.008615;-99.287038;-0.438456;-0.055413;-0.769142;6;11.385298;-0.115281;0.153993;-1.912256;1.402941;-0.264647;-0.582262;-0.116833;0.379954;1;0;
270;0;0.801476;1.701937;9.812396;2.533033;2.428504;3.712287;-0.023683;-0.219557;-0.848400;1;-8.576599;-4.167806;3.606115;-16.773001;137.616671;-112.901247;-0.425190;-0.114476;-0.794103;6;10.498665;-0.462206;0.016189;-2.080755;5.621261;-8.933144;-0.568074;-0.101263;0.394714;1;0;
271;0;0.682471;1.758497;9.582998;2.254848;2.402742;3.160658;-0.011449;-0.202974;-0.813353;1;-9.189114;-2.982779;4.669966;-29.408229;141.848307;-119.280061;-0.398202;-0.080470;-0.839711;6;9.970571;0.120758;0.248385;-1.493012;8.724688;-13.045146;-0.610353;-0.151279;0.412543;1;0;
272;0;0.336635;1.873146;9.463094;1.732385;2.154109;3.188788;-0.053068;-0.194794;-0.840457;1;-8.884855;-1.461635;5.583524;-37.345128;149.401795;-118.564052;-0.398573;-0.096862;-0.824358;6;10.090224;-0.576424;0.247619;-1.577651;9.827213;-13.202899;-0.609940;-0.100223;0.363448;1;0;
273;0;0.914540;2.161145;9.759701;1.392333;1.848000;2.939453;-0.023683;-0.219557;-0.848400;1;-8.189127;-1.519069;5.824542;-43.520046;157.411464;-113.958643;-0.345928;-0.063777;-0.856167;6;9.418342;-0.754359;-1.023272;-2.213174;10.019478;-11.306803;-0.596516;-0.150249;0.397085;1;0;
274;0;0.621711;1.987580;9.412291;0.596272;1.622900;3.490098;-0.022940;-0.212500;-0.876552;1;-7.382865;-1.069886;5.898486;-55.615776;163.933145;-108.817971;-0.358835;-0.108741;-0.867231;6;9.539406;-0.637735;-0.840856;-3.628904;9.636878;-10.291362;-0.568354;-0.116629;0.380024;1;0;
275;0;0.846523;1.641800;9.187885;0.289366;1.497500;3.580946;-0.024055;-0.223085;-0.834324;1;-6.104337;-1.071783;6.491478;-70.289577;169.269653;-105.478767;-0.306711;-0.122690;-0.881680;6;9.414751;-1.103804;-1.264383;-5.519068;8.654350;-10.585432;-0.596796;-0.165615;0.382395;1;0;
276;0;0.450854;2.275154;9.467010;0.351620;1.150698;4.372478;-0.024441;-0.209314;-0.837740;1;-5.214346;-0.396343;7.812892;-85.385713;175.459632;-102.347137;-0.280093;-0.105076;-0.911934;6;9.359596;-0.870376;-1.024867;-6.844207;6.599061;-7.514759;-0.596800;-0.146944;0.334974;1;0;
277;0;0.745210;1.874544;9.868860;0.380761;1.030000;4.186429;-0.011449;-0.202974;-0.813353;1;-5.532127;0.337738;9.165605;-93.930308;179.628914;-96.024830;-0.267708;-0.107144;-0.883510;6;8.889918;-1.449809;-0.976236;-8.516045;4.246447;-5.388748;-0.582608;-0.150045;0.397156;1;0;
278;0;0.631857;1.817427;9.923245;1.144056;0.885481;3.691208;-0.038547;-0.226239;-0.819899;1;-4.530200;0.787499;10.319328;-95.923605;184.192906;-85.840410;-0.239614;-0.084171;-0.985514;6;9.364538;-1.101691;-0.786228;-9.974499;2.799718;-5.009823;-0.569118;-0.182225;0.398900;1;0;
279;0;0.393682;2.160312;9.465414;1.909314;1.048280;3.200974;-0.024841;-0.178244;-0.858647;1;-4.518196;1.463987;10.942933;-96.941284;192.853211;-72.593519;-0.200981;-0.085017;-0.971991;6;9.418572;-1.800222;-1.147536;-12.567454;2.206357;-4.722545;-0.610495;-0.149627;0.381487;1;0;
280;0;0.564291;2.217388;9.412143;2.034383;1.417285;3.237279;0.003772;-0.175464;-0.873422;1;-4.330023;0.957258;11.625808;-99.156058;204.761285;-57.280488;-0.148852;-0.038756;-0.976105;6;9.075500;-1.332084;-0.493185;-15.253133;1.302671;-4.036146;-0.568633;-0.131995;0.365333;1;0;
281;0;0.850687;2.044856;9.416986;1.207800;1.536001;3.272255;-0.011092;-0.182147;-0.844920;1;-3.568915;1.238031;12.264796;-105.314890;217.481728;-42.856003;-0.121939;-0.020070;-1.020709;6;8.775592;-1.623025;-0.799458;-17.193561;1.540403;-4.030253;-0.582120;-0.118486;0.411009;1;0;
282;0;0.798052;1.816096;9.642320;1.331398;1.846671;3.031609;-0.010706;-0.195918;-0.841505;1;-3.160344;1.462836;12.556646;-114.272417;228.734542;-29.650181;-0.057430;-0.036087;-1.006735;6;9.196408;-1.622240;-0.372406;-18.489148;2.002788;-4.822374;-0.582191;-0.117660;0.395481;1;0;
283;0;0.683544;1.816179;9.640093;1.547584;2.468910;2.458418;-0.024455;-0.192015;-0.855231;1;-2.323021;0.842877;13.989039;-124.010065;239.282380;-17.962174;-0.070111;-0.035090;-1.020809;6;8.966115;-1.736615;-0.077768;-18.246146;2.352143;-5.986260;-0.623982;-0.136117;0.427163;1;0;
284;0;0.687749;2.161794;9.868953;2.345596;3.095258;1.760947;-0.024069;-0.205786;-0.851816;1;-2.296187;1.350942;15.292177;-127.980495;249.036560;-4.920732;-0.005080;-0.004074;-1.024195;6;8.853450;-1.677033;0.219813;-17.050220;2.430887;-7.274540;-0.568633;-0.131995;0.365333;1;0;
285;0;0.910251;1.930414;9.531323;2.743537;3.442813;1.090762;-0.024426;-0.226613;-0.820248;1;-2.154138;1.182778;16.540524;-124.359816;255.658323;10.192313;0.046528;-0.004846;-1.010948;6;8.910826;-1.445111;0.161995;-15.828901;2.054362;-8.896894;-0.582746;-0.167063;0.413520;1;0;
286;0;0.573323;2.046993;9.866243;3.357819;3.692221;1.031711;-0.009577;-0.202632;-0.866241;1;-2.896899;0.790055;16.751035;-119.607663;258.983441;25.982976;0.073221;0.028089;-1.042206;6;8.562906;-1.733445;0.453691;-14.019023;1.581555;-9.879131;-0.582333;-0.116007;0.364426;1;0;
287;0;0.913468;2.103463;9.702606;4.162162;4.488004;1.655683;-0.067946;-0.184177;-0.829448;1;-1.802725;0.562686;16.773814;-119.112041;260.396697;40.302634;0.111709;0.056811;-1.016341;6;8.918529;-1.443381;0.581344;-12.049507;0.757372;-9.362802;-0.582541;-0.132200;0.365263;1;0;
288;0;0.792402;1.929773;9.358537;4.445006;5.032373;2.553075;-0.053811;-0.201850;-0.812305;1;-1.805920;0.337221;16.603706;-124.007335;260.532043;52.324114;0.176884;0.058258;-1.032069;6;8.856887;-1.734367;0.399286;-9.837374;-0.089259;-9.550136;-0.596796;-0.165615;0.382395;1;0;
289;0;0.281608;1.873670;9.575687;4.786297;5.647876;2.623431;-0.009920;-0.240759;-0.817181;1;-1.634325;0.280520;16.550645;-134.772995;260.435455;60.330701;0.189715;0.087902;-1.020003;6;8.742291;-1.791432;0.576559;-7.810563;-1.215322;-9.399300;-0.582608;-0.150045;0.397156;1;0;
290;0;0.857285;2.161187;9.758587;4.821139;6.418383;2.451848;-0.024426;-0.226613;-0.820248;1;-1.361561;-0.450596;18.480611;-145.507363;260.086213;64.881718;0.241845;0.134164;-1.024116;6;8.809125;-2.312768;0.934876;-5.443733;-2.062335;-9.495511;-0.554934;-0.147984;0.366240;1;0;
291;0;0.749457;2.162717;10.097479;6.050006;7.291876;1.818489;-0.010349;-0.175090;-0.873072;1;-0.898897;0.956995;18.718026;-138.242867;260.579890;69.023995;0.281288;0.121212;-1.052639;6;8.796075;-1.908955;0.277630;-3.271509;-3.171123;-10.964984;-0.582541;-0.132200;0.365263;1;0;
292;0;-0.921108;2.391514;9.554475;5.614542;6.995426;0.680219;0.017149;-0.182896;-0.845619;1;0.614381;0.504165;19.485393;-137.562936;258.569437;73.506060;0.319775;0.149934;-1.026774;6;8.631131;-1.905830;0.933305;0.397694;-3.530668;-10.426471;-0.596449;-0.132404;0.365193;1;0;
293;0;-0.106676;1.531964;10.191828;6.964394;7.467206;0.285319;-0.039333;-0.181397;-0.844222;1;3.040829;1.006992;19.989711;-137.260329;250.510647;70.466113;0.358559;0.179728;-1.015259;6;8.692348;-1.905471;1.054219;2.824369;-4.404883;-10.828371;-0.610912;-0.182011;0.383161;1;0;
294;0;0.578025;1.703309;10.092208;7.035119;8.253980;1.401943;-0.022926;-0.229799;-0.859060;1;6.811308;-0.745264;21.256252;-141.658999;238.928877;58.507712;0.371019;0.192980;-0.987839;6;8.636728;-2.892381;1.108823;6.156810;-4.770058;-9.860764;-0.568566;-0.114150;0.333440;1;0;
295;0;-0.235536;1.356586;9.449787;5.449711;9.036502;2.216582;-0.024455;-0.192015;-0.855231;1;10.959752;-0.809212;21.513165;-131.874849;221.114535;34.228377;0.409357;0.191061;-0.959967;6;8.091142;-2.836304;0.320376;9.249150;-4.713868;-8.313637;-0.596867;-0.164789;0.366867;1;0;
296;0;0.288040;2.219767;9.918253;4.817835;10.157669;3.371317;-0.024455;-0.192015;-0.855231;1;14.504414;-0.704182;20.455420;-126.785111;197.991979;2.063187;0.421817;0.204313;-0.932547;6;7.912858;-2.778070;0.257415;11.178152;-4.522503;-5.448784;-0.568838;-0.166859;0.413591;1;0;
297;0;0.116277;2.219891;9.914912;6.814380;11.155563;2.921778;-0.037790;-0.236482;-0.830559;1;17.245387;0.134796;19.551286;-114.569248;168.958142;-30.892837;0.409137;0.205310;-0.946621;6;7.908611;-2.372279;0.079425;12.949195;-4.728084;-2.703647;-0.569610;-0.195113;0.337626;1;0;
298;0;0.629671;1.759503;9.809297;6.228079;11.633965;1.152523;-0.066002;-0.270331;-0.794877;1;18.122854;1.427062;17.645973;-98.290774;136.635112;-59.714823;0.486628;0.249578;-0.922587;6;7.555095;-1.674063;0.195603;15.648339;-5.526019;1.446917;-0.583096;-0.181603;0.383302;1;0;
299;0;0.861656;2.277035;9.986482;7.620063;10.659120;-1.750119;-0.024083;-0.188486;-0.869307;1;17.445839;2.834898;15.708114;-82.243982;106.392542;-80.038277;0.447034;0.231888;-0.892056;6;8.619992;-1.850227;0.334483;18.712525;-5.502506;9.107313;-0.638102;-0.133842;0.380510;1;0;
300;0;0.626040;2.160870;9.640427;6.878511;10.954858;-3.736626;-0.011078;-0.199446;-0.827429;1;16.503749;4.356835;14.840458;-65.312759;81.372886;-87.331996;0.486633;0.309787;-0.912251;6;9.387897;-1.677507;0.409437;20.216095;-5.631589;19.158807;-0.610148;-0.116415;0.364285;1;0;
301;0;0.804360;2.334518;9.985610;6.413233;10.749765;-4.812025;-0.024426;-0.226613;-0.820248;1;14.928525;5.203944;13.902295;-44.457145;60.201988;-80.806397;0.460606;0.294317;-0.910696;6;9.383070;-1.969123;0.108667;20.814563;-4.967024;26.092496;-0.596516;-0.150249;0.397085;1;0;
302;0;1.710570;3.653080;9.554151;0.686018;13.560148;-8.338149;0.003815;-0.227363;-0.820946;1;14.691033;5.823774;13.614783;-19.491153;40.011659;-66.623336;0.486778;0.280219;-0.924594;6;9.733866;-1.970675;-0.064451;18.785754;-4.086011;25.973362;-0.582959;-0.164585;0.366937;1;0;
303;0;0.862397;2.794250;10.045507;-7.125548;16.454697;-12.010330;0.003786;-0.192764;-0.855930;1;14.109851;4.923279;13.262097;1.877169;16.632647;-50.378353;0.538022;0.323264;-0.885658;6;9.551990;-2.261886;-0.368523;16.720212;-4.066549;20.417275;-0.624194;-0.133638;0.380580;1;0;
304;0;0.746816;2.736650;9.986186;-9.190760;21.929980;-15.963892;-0.038576;-0.191640;-0.854882;1;13.278633;4.247778;11.998532;16.815182;-9.412803;-33.239713;0.486633;0.309787;-0.912251;6;9.311794;-2.378487;-0.613047;15.544900;-4.998737;15.504651;-0.568492;-0.133648;0.396389;1;0;
305;0;1.464632;3.317323;11.593847;-29.270650;31.964446;-17.399213;-0.009563;-0.219931;-0.848749;1;11.779623;4.194155;11.853774;26.385544;-34.628515;-13.322067;0.446669;0.275706;-0.866368;6;9.028798;-2.839948;-0.021458;15.558019;-6.113692;13.889903;-0.568354;-0.116629;0.380024;1;0;
306;0;1.078042;2.171678;12.263464;-36.748620;46.331140;-24.474689;0.032799;-0.221055;-0.849797;1;9.161137;3.690892;10.439596;29.846913;-54.236939;9.113518;0.499389;0.324111;-0.899181;6;9.082021;-3.190022;-0.381282;16.371930;-7.251702;17.743797;-0.540396;-0.117874;0.411220;1;0;
307;0;0.478981;1.879094;10.886648;-46.352003;62.973589;-29.942982;-0.024812;-0.212842;-0.823664;1;-18.119436;-9.557089;68.224166;-11.819827;-86.707374;24.572588;0.447925;0.295314;-0.924770;6;8.914181;-3.361867;0.093930;18.686469;-7.957715;24.708302;-0.555072;-0.165003;0.382605;1;0;
308;0;0.766859;2.740993;11.009541;-59.332335;70.812593;-30.115574;0.031656;-0.197041;-0.842552;1;1.352097;-11.337415;7.148553;582.106714;-201.864012;102.682636;0.499980;0.326255;-0.927880;6;9.637761;-3.824882;0.883947;19.370721;-9.018675;32.903627;-0.554867;-0.130139;0.334348;1;0;
309;0;0.707667;2.338461;10.893033;-62.703582;78.402116;-34.184781;0.045033;-0.204472;-0.814750;1;-2.406277;2.022640;10.195182;139.095819;-172.480776;70.273253;0.474317;0.266967;-0.952014;6;10.174004;-3.650633;1.194127;23.830955;-10.006318;32.341911;-0.554304;-0.118078;0.411150;1;0;
310;0;0.251983;2.166950;10.997107;-64.928957;84.586571;-33.126916;0.059111;-0.152949;-0.867574;1;-13.967376;-0.661755;7.458981;189.099284;-187.938941;90.602262;0.408922;0.279768;-0.922939;6;10.342269;-3.188160;0.780058;29.087050;-8.868560;27.640199;-0.567519;-0.051859;0.376675;1;0;
311;0;0.036452;1.997686;11.674166;-62.007188;95.159845;-32.257890;0.101087;-0.140302;-0.872037;1;-0.655360;6.463693;3.668629;137.748088;-210.179550;152.812881;0.358119;0.208225;-0.988567;6;10.937318;-1.503328;1.277487;30.867557;-3.348156;23.847390;-0.540534;-0.134892;0.427585;1;0;
312;0;0.469109;2.578808;13.333113;-61.063451;98.729310;-24.227551;0.059868;-0.163192;-0.878234;1;2.134335;13.672775;8.319325;63.788493;-258.535635;111.507541;0.383034;0.174519;-0.944062;6;12.109978;-0.578048;1.003917;37.831097;6.288464;20.169117;-0.581911;-0.102293;0.410172;1;0;
313;0;0.059716;0.623915;12.805436;-38.319907;113.880486;-26.163034;0.117093;-0.157633;-0.907783;1;5.047664;9.730062;15.057506;50.873289;-242.279398;56.282033;0.331715;0.116153;-0.981994;6;13.311032;-1.635400;-1.193979;42.483517;18.339716;18.902610;-0.581844;-0.084448;0.378279;1;0;
314;0;0.066521;0.453038;13.145831;-37.208219;126.208873;-12.961024;0.102616;-0.178086;-0.875866;1;5.192052;4.548197;15.961795;51.027025;-191.851249;-2.317674;0.292567;0.130176;-0.967820;6;14.258859;-1.940684;-4.231759;32.030923;25.355116;20.251962;-0.609940;-0.100223;0.363448;1;0;
315;0;-0.256015;0.687636;14.220324;-26.949851;141.293012;-8.819501;0.131214;-0.158008;-0.908132;1;-0.083006;-1.583918;13.581031;53.349581;-150.002274;-28.164850;0.293308;0.162961;-0.998527;6;14.615292;-1.999076;-4.105590;21.416232;25.851425;7.052865;-0.609172;-0.053298;0.391993;1;0;
316;0;-0.075136;0.402234;14.677283;-17.082851;157.008923;-3.746606;0.143062;-0.127654;-0.876501;1;-1.387378;-5.524102;14.116302;140.748955;-99.528015;-22.167539;0.280552;0.148637;-1.011598;6;13.153519;-1.702106;-3.353075;19.801022;21.817729;-11.687297;-0.567795;-0.085897;0.409405;1;0;
317;0;1.146468;-0.054067;15.665238;-5.002659;175.341268;-1.060434;0.200316;-0.156695;-0.871066;1;0.746257;-2.657238;11.899076;143.214064;-63.484745;30.045935;0.267276;0.087280;-1.007307;6;10.766444;-1.979780;-1.662129;26.333270;12.152542;-15.484777;-0.567866;-0.085071;0.393877;1;0;
318;0;0.705917;0.409657;16.567910;6.300414;196.767961;1.862286;0.215166;-0.132713;-0.917059;1;-0.060488;-3.728488;9.050479;117.776955;-37.449222;47.025229;0.253709;0.085062;-0.978332;6;10.140666;-1.624400;-0.354799;29.066102;5.453363;3.240860;-0.553820;-0.067848;0.377583;1;0;
319;0;0.960420;0.587364;17.880709;17.908737;220.322127;1.291961;0.242649;-0.123220;-0.907097;1;0.267998;2.579694;8.836485;79.432399;-21.806539;28.404997;0.228718;0.103448;-1.021833;6;10.411466;0.009842;1.753266;26.658486;6.487273;23.723981;-0.609664;-0.066185;0.330718;1;0;
320;0;1.666527;0.418644;18.859849;35.421838;245.176624;-3.414382;0.255298;-0.155007;-0.833651;1;-2.791426;2.193098;11.036456;68.457610;-13.197185;27.001937;0.254520;0.072957;-1.020378;6;11.478313;0.415180;2.074339;29.363910;7.847742;20.284044;-0.581013;-0.001007;0.327510;1;0;
321;0;1.045802;0.191264;19.301461;55.846492;269.278793;-13.907399;0.327401;-0.160066;-0.874209;1;-0.431596;2.129964;8.368482;48.822689;-8.839926;16.516623;0.241098;0.041169;-1.003745;6;12.286352;-0.288073;1.008455;31.804451;8.151865;9.453208;-0.525795;-0.051247;0.376886;1;0;
322;0;0.956820;0.311778;20.607337;71.984810;290.874264;-19.184591;0.313681;-0.190762;-0.852952;1;-0.641438;1.567849;9.269406;8.245456;-7.380266;0.498432;0.241764;0.058633;-1.033448;6;13.147499;-0.818469;-0.355122;31.064215;10.940643;-0.185083;-0.567452;-0.034014;0.344783;1;0;
323;0;0.900431;0.656710;20.664525;86.230596;313.341822;-23.798161;0.397618;-0.148168;-0.879371;1;-0.614997;0.385856;10.401202;13.061310;-4.684977;5.646602;0.240357;0.008385;-0.973038;6;13.399257;-0.654558;-2.685247;28.012783;15.463772;-0.837436;-0.567314;-0.016996;0.328418;1;0;
324;0;0.451837;1.463395;21.170673;92.892852;333.288194;-28.615059;0.424402;-0.197629;-0.788782;1;-0.926285;1.906513;9.433564;10.722336;-4.382346;1.701704;0.241688;0.043313;-1.032444;6;12.605367;-0.542584;-4.136824;26.646121;17.958397;-11.815908;-0.581364;-0.015547;0.297292;1;0;
325;0;-1.406982;-0.149674;19.706957;88.985724;349.530955;-27.971342;0.537395;-0.235224;-0.756592;1;-0.291772;1.229361;9.446293;1.033007;-4.074969;-3.173867;0.202095;0.025624;-1.001914;6;11.765260;-0.253281;-4.869877;27.170558;19.598902;-25.332418;-0.539290;-0.000395;0.327721;1;0;
326;0;-1.130463;1.928671;22.221635;101.655476;358.420911;-21.820646;0.580156;-0.267418;-0.736732;1;-0.742517;1.174272;9.889692;-1.696683;-5.140425;-4.974673;0.254589;0.028068;-1.031716;6;10.249568;0.219288;-3.818186;25.613285;20.892531;-35.599575;-0.580734;0.014359;0.342201;1;0;
327;0;-3.065357;1.070870;22.748687;130.240877;356.132957;-38.442571;0.619889;-0.258641;-0.674231;1;-0.865009;1.230534;9.547484;-3.931809;-6.054941;-5.447981;0.227236;0.037878;-0.960420;6;9.736746;0.863790;-2.747047;21.732200;21.177640;-40.842092;-0.609526;-0.049167;0.314353;1;0;
328;0;-2.604774;3.713814;22.996108;165.664418;315.093834;-51.084376;0.619932;-0.310539;-0.621756;1;-0.916183;1.681570;9.886492;-7.602803;-5.729367;-6.095079;0.215221;0.056339;-1.004197;6;9.349348;0.696194;-1.377633;15.532581;20.320188;-39.929521;-0.566893;-0.003282;0.374164;1;0;
329;0;0.042583;2.126362;14.914161;187.337780;298.326589;-63.384377;0.690163;-0.315941;-0.609426;1;-0.618840;0.498375;10.231378;-8.646377;-5.191513;-5.967260;0.215516;0.057411;-1.018547;6;8.534302;1.572191;-0.670448;9.617351;17.991509;-35.680596;-0.609038;-0.017608;0.328207;1;0;
330;0;6.991549;-1.543232;4.292911;159.952953;269.173562;-51.416513;0.689077;-0.361124;-0.532215;1;-0.506234;0.554395;10.120564;-4.468456;-4.442944;-4.476723;0.215372;0.086980;-1.006204;6;8.541019;1.050743;-0.373139;4.627609;14.578753;-29.810268;-0.581431;-0.033392;0.329185;1;0;
331;0;17.712239;-12.398407;-6.910397;116.473972;180.257599;-16.573041;0.756650;-0.322026;-0.491320;1;-0.448669;0.554287;10.121773;-3.781439;-3.737463;-3.174385;0.201730;0.069441;-0.976226;6;8.599880;0.643829;-0.433676;2.368657;10.301079;-25.137144;-0.595689;-0.048136;0.298896;1;0;
332;0;7.854162;-2.174987;4.477518;-32.576475;85.888107;-1.944956;0.742544;-0.338951;-0.473479;1;-0.389225;0.835927;10.236498;-2.603039;-3.327338;-2.645284;0.229083;0.059630;-1.047522;6;9.182048;0.292044;-0.903410;-0.412262;6.638487;-20.953814;-0.580663;0.013533;0.357729;1;0;
333;0;13.106053;-2.916572;6.679273;-34.742096;5.748968;12.766790;0.757065;-0.370396;-0.452921;1;-0.569390;0.948627;9.893129;-2.202310;-3.441483;-3.170171;0.228122;0.041094;-1.003469;6;9.124112;-0.172429;-0.906488;-2.757296;2.096822;-20.343053;-0.637062;-0.034209;0.328904;1;0;
334;0;11.630302;-2.223301;7.335455;-13.974811;-28.891153;10.273500;0.743330;-0.383792;-0.449156;1;-0.966303;0.949618;10.167864;-2.018387;-3.561189;-3.263697;0.227902;0.055343;-0.990123;6;10.298508;-0.466993;-1.245157;-4.457718;-2.467935;-20.223440;-0.609459;-0.031322;0.282461;1;0;
335;0;9.913177;-2.291844;4.403415;-7.158716;-47.514296;4.400625;0.757050;-0.353096;-0.470413;1;-0.396262;0.722981;9.896566;-0.129506;-3.142451;-2.672284;0.227902;0.055343;-0.990123;6;10.049643;-0.643648;-1.969183;-5.612745;-6.732898;-22.276829;-0.609664;-0.066185;0.330718;1;0;
336;0;9.406806;-1.670030;1.952478;-22.813558;-72.900994;8.142557;0.757793;-0.346040;-0.498565;1;-1.138006;1.062650;10.220972;-0.694999;-3.942987;-3.266429;0.228417;0.042166;-1.017819;6;9.757884;-0.177375;-1.733080;-7.278897;-9.285785;-24.428173;-0.595343;-0.014925;0.281694;1;0;
337;0;8.622977;-1.550706;2.847022;-45.207307;-100.408256;16.929158;0.744416;-0.338609;-0.526367;1;-1.848217;1.739198;9.357440;-0.074966;-3.666202;-2.184201;0.189345;0.071510;-1.004649;6;9.392917;-0.237114;-2.338999;-6.375797;-9.302973;-28.373139;-0.582269;-0.079491;0.285112;1;0;
338;0;7.840670;-0.454394;3.859373;-56.855943;-125.068680;25.577344;0.743287;-0.331894;-0.501631;1;-0.163606;0.102962;9.957519;0.358526;-3.598377;-2.337317;0.228712;0.043238;-1.032169;6;8.443001;-0.642969;-2.717778;-6.714262;-7.718764;-24.926604;-0.609176;-0.034627;0.344572;1;0;
339;0;7.451225;0.812263;4.482272;-59.561000;-145.119391;32.557188;0.687176;-0.326868;-0.514310;1;-1.428143;1.006764;10.101601;-0.811870;-3.394185;-3.014443;0.241173;0.056490;-1.004749;6;9.218475;-0.410442;-2.223228;-8.466001;-6.273341;-20.374115;-0.596036;-0.081348;0.316098;1;0;
340;0;6.497943;0.817310;5.486698;-56.572452;-160.885801;38.210219;0.659321;-0.339890;-0.510196;1;-1.845799;1.739293;9.470719;-0.467353;-2.964581;-2.393336;0.240432;0.023705;-0.974042;6;8.988203;-0.059963;-1.866705;-9.765523;-6.234887;-15.663588;-0.609735;-0.065359;0.315191;1;0;
341;0;6.274783;0.416592;5.764820;-50.847580;-175.222321;43.571819;0.673799;-0.319436;-0.542113;1;-1.261252;1.513225;9.879096;0.433805;-2.467801;-1.586144;0.241613;0.027992;-1.031441;6;9.058068;-0.464405;-1.328173;-11.462361;-7.232418;-14.430315;-0.581777;-0.066603;0.346387;1;0;
342;0;4.560899;1.395306;5.962930;-46.184509;-187.843435;49.056141;0.688291;-0.316283;-0.556538;1;-0.853698;1.005639;10.057050;-1.697498;-2.292265;0.263570;0.241248;0.071810;-1.005752;6;8.885016;-0.288783;-1.091105;-10.537766;-6.421189;-15.659902;-0.582057;-0.081970;0.331696;1;0;
343;0;3.932214;1.396003;6.007535;-46.862317;-201.097579;53.870906;0.646672;-0.308102;-0.583643;1;-0.510831;1.061228;9.951072;-1.319098;-1.904080;-2.106024;0.202095;0.025624;-1.001914;6;9.129770;0.235587;-0.545316;-9.897004;-6.437156;-16.853944;-0.567940;-0.065573;0.330929;1;0;
344;0;3.887042;1.628465;6.632771;-49.540324;-213.870087;56.031922;0.645515;-0.266789;-0.593890;1;-1.025747;0.667979;10.053139;-1.257585;-1.990662;-2.815878;0.228417;0.042166;-1.017819;6;8.966041;-0.283973;0.108133;-8.511103;-6.242962;-17.409945;-0.609944;-0.081552;0.316028;1;0;
345;0;3.618379;1.919740;7.538059;-50.906053;-225.617285;55.078723;0.605440;-0.313693;-0.607331;1;-0.267164;1.004988;10.578896;-0.979889;-2.046251;-3.155315;0.254074;0.041244;-1.004021;6;8.953646;-0.635396;-0.612233;-6.979747;-6.683633;-18.635727;-0.582336;-0.097336;0.317005;1;0;
346;0;3.577785;1.980841;8.389984;-48.691908;-235.291400;49.090235;0.547800;-0.270882;-0.616182;1;-0.226738;1.116877;9.787245;0.131603;-2.035763;-2.599414;0.241248;0.071810;-1.005752;6;9.434444;-0.576422;-0.123927;-5.727020;-7.185217;-19.982428;-0.637689;-0.082786;0.331415;1;0;
347;0;3.580877;2.326214;8.561991;-47.552887;-243.962159;40.974703;0.521031;-0.238720;-0.689279;1;-0.561813;0.779920;10.232824;0.316033;-2.095547;-2.476548;0.214631;0.054196;-0.975498;6;9.145115;-1.155518;0.107726;-4.602811;-7.087471;-23.134399;-0.595827;-0.065155;0.315261;1;0;
348;0;3.990566;2.327854;9.024610;-49.638589;-252.819612;31.699873;0.522545;-0.259205;-0.710599;1;-0.855338;1.230913;10.000600;-0.300882;-2.155660;-3.864897;0.227607;0.054271;-0.975773;6;9.016524;-0.402238;-0.370516;-3.031477;-6.862340;-23.660635;-0.596036;-0.081348;0.316098;1;0;
349;0;2.917207;2.331778;9.742544;-52.464888;-261.416258;20.805707;0.479426;-0.247839;-0.698891;1;-1.534381;0.781989;10.495470;-1.562868;-1.775095;-3.553850;0.201875;0.039872;-0.988568;6;8.948279;-0.694708;-0.912014;-1.985601;-6.357180;-24.827996;-0.596382;-0.114559;0.333300;1;0;
350;0;3.451012;2.909922;10.721481;-54.318887;-270.453384;8.428906;0.396561;-0.227950;-0.767176;1;-0.618062;0.723745;10.288207;-1.131826;-1.834561;-2.999192;0.201580;0.038800;-0.974218;6;9.121196;-0.812254;-1.148835;-1.392879;-4.691634;-25.968687;-0.609873;-0.082378;0.331555;1;0;
351;0;3.127818;2.512422;11.736466;-57.673325;-281.790786;0.158384;0.381669;-0.200033;-0.773658;1;-0.448107;0.892318;10.178697;-1.473458;-2.020046;-3.432902;0.228272;0.071735;-1.005476;6;9.124747;-1.392520;-1.031494;-1.727785;-3.769520;-26.521890;-0.581915;-0.083622;0.362752;1;0;
352;0;2.571028;2.286448;12.520309;-64.686645;-294.019649;-1.614692;0.351913;-0.178799;-0.751640;1;-0.742625;1.230603;9.889739;0.191792;-2.186495;-2.878315;0.214185;0.022483;-0.959141;6;8.707097;-1.334488;-1.278577;-2.762393;-2.526396;-25.821277;-0.623784;-0.063911;0.284065;1;0;
353;0;1.800685;2.236342;14.096366;-73.225150;-303.642489;2.209827;0.310666;-0.167090;-0.792820;1;-0.156438;0.779260;10.354565;-0.767650;-2.465375;-4.299942;0.228047;0.025774;-1.002466;6;8.769840;-1.043254;-1.036613;-4.293375;-0.968742;-26.128731;-0.595756;-0.065981;0.330789;1;0;
354;0;1.485737;2.759837;15.570037;-77.879550;-310.989450;7.716028;0.253798;-0.151821;-0.794839;1;-0.219939;0.722800;10.070111;-0.556616;-2.919392;-4.797532;0.215071;0.025699;-1.002190;6;8.698023;-1.220313;-1.757338;-6.279692;0.170055;-24.538024;-0.638039;-0.097326;0.301197;1;0;
355;0;1.313797;2.370216;18.463401;-73.082520;-316.747340;12.638006;0.211822;-0.164468;-0.790375;1;0.001645;0.834698;9.678564;-0.655222;-3.352301;-4.431982;0.227827;0.040022;-0.989119;6;8.284525;-0.580285;-1.702414;-8.757077;0.992362;-22.088403;-0.596736;-0.110427;0.255661;1;0;
356;0;1.354457;3.125882;20.570103;-61.738297;-323.311936;15.381368;0.211793;-0.129869;-0.825359;1;-0.685514;0.836134;9.833976;0.020631;-3.621278;-4.187490;0.241393;0.042241;-1.018095;6;8.939745;-0.812838;-1.391764;-11.607467;1.042926;-19.083654;-0.568775;-0.130343;0.334277;1;0;
357;0;1.110415;3.250140;22.725435;-40.059331;-334.270247;10.847969;0.168674;-0.118503;-0.813651;1;-0.915883;0.892896;9.829188;-0.844992;-3.692578;-4.343035;0.241248;0.071810;-1.005752;6;8.823624;-1.160777;-1.335541;-13.511411;1.083676;-17.762944;-0.610432;-0.113110;0.302174;1;0;
358;0;-0.456854;2.040162;21.553242;-30.663879;-345.882559;10.049821;0.099958;-0.133587;-0.847301;1;-1.366412;0.725146;10.272491;1.098535;-3.825640;-3.664582;0.201730;0.069441;-0.976226;6;8.760901;-0.987155;-1.515621;-14.977147;1.423993;-15.681262;-0.624198;-0.114967;0.333159;1;0;
359;0;-1.050966;5.967431;26.445655;-35.442578;-357.281555;-1.805613;0.042332;-0.108075;-0.838660;1;-1.312689;0.837557;10.103876;-0.848925;-3.913477;-3.389571;0.201730;0.069441;-0.976226;6;8.598273;-1.506468;-0.802265;-18.972811;2.379625;-14.815696;-0.624690;-0.127854;0.271885;1;0;
360;0;-4.579391;1.710842;24.370017;-43.781652;-345.606414;10.184049;0.001100;-0.113666;-0.862349;1;-0.626847;0.892404;9.891872;3.579497;-5.480508;-3.679040;0.215297;0.071660;-1.005201;6;8.572963;-1.512154;-2.180123;-18.070783;1.405241;-11.972270;-0.610711;-0.128477;0.287483;1;0;
361;0;-10.122304;0.683086;24.769343;-49.547578;-328.994146;13.935468;-0.014893;-0.113634;-0.809112;1;-1.433433;0.612213;9.818071;3.480493;-6.144661;-5.473737;0.202541;0.057336;-1.018271;6;7.702567;-1.739219;-1.418829;-19.312269;1.575103;-8.117971;-0.596662;-0.129925;0.318609;1;0;
362;0;-15.986597;-0.167272;26.299773;-62.843766;-307.643130;36.213838;-0.099245;-0.107858;-0.821092;1;-1.785277;1.457628;9.584970;4.481278;-7.489089;-4.253187;0.214260;0.037803;-0.960144;6;7.404725;-1.971590;-1.605041;-22.070706;2.310324;-6.216700;-0.624548;-0.129507;0.302941;1;0;
363;0;-19.876133;-0.118634;23.496462;-66.787553;-283.654474;54.795604;-0.098859;-0.121629;-0.817676;1;-1.033085;1.343708;9.770510;4.289178;-7.927412;-3.240381;0.175848;0.024402;-0.987013;6;7.232908;-1.853796;-1.308313;-23.198863;3.776032;-0.443379;-0.610782;-0.127650;0.271955;1;0;
364;0;-22.707330;2.220847;19.302633;-68.382617;-244.666327;61.932269;-0.185854;-0.088653;-0.783601;1;-0.446036;0.441721;10.234957;5.542876;-8.837776;-2.261930;0.215221;0.056339;-1.004197;6;7.046807;-1.274362;-1.728490;-25.339533;6.005063;5.116285;-0.624619;-0.128681;0.287413;1;0;
365;0;-24.289940;4.384679;14.564046;-74.823561;-187.210615;54.759281;-0.184725;-0.095368;-0.808337;1;-0.601592;0.330047;11.024190;3.340956;-11.905258;-1.677642;0.189194;0.040869;-1.002642;6;7.394146;-1.683434;-2.142967;-26.024296;8.536733;11.494748;-0.596803;-0.128272;0.287554;1;0;
366;0;-26.507642;7.077321;12.486363;-77.145618;-122.262743;38.283390;-0.256114;-0.048653;-0.830914;1;-1.171202;0.331362;11.295299;-4.194625;-23.815468;-0.384033;0.202321;0.071585;-1.004925;6;7.633086;-1.973860;-2.019987;-28.214995;9.032417;16.054689;-0.597150;-0.161484;0.304756;1;0;
367;0;-28.324490;9.035278;13.311733;-54.393571;-69.042013;23.628627;-0.228602;-0.073758;-0.785969;1;-1.635521;1.684110;11.230126;-5.543799;-32.440720;2.889400;0.202245;0.056264;-1.003921;6;8.346647;-1.916168;-1.707000;-29.391140;9.257702;20.490139;-0.625108;-0.160239;0.273559;1;0;
368;0;-31.300732;9.209999;13.311408;-13.343959;-38.305332;22.016725;-0.243108;-0.059613;-0.789036;1;-1.009124;1.457317;10.903397;-16.598122;-37.079712;1.416289;0.175848;0.024402;-0.987013;6;8.529043;-2.322117;-1.465802;-29.112268;9.911432;25.407535;-0.638110;-0.096500;0.285669;1;0;
369;0;-32.488795;6.398888;13.901585;30.390134;-18.071935;36.600326;-0.258014;-0.014397;-0.813010;1;-0.204979;1.117730;10.806758;-23.514287;-45.804811;9.061919;0.175998;0.055042;-0.989020;6;8.592481;-1.856407;-1.163189;-27.135932;9.822572;31.728760;-0.638527;-0.128885;0.287343;1;0;
370;0;-39.430612;38.939865;46.524377;14.012926;169.209997;35.429531;-0.285098;-0.054961;-0.802064;1;-0.556847;1.343462;10.516496;-29.526070;-51.850759;12.049026;0.190080;0.044085;-1.045691;6;9.363127;-1.915497;-0.969410;-24.877740;9.819548;38.721464;-0.610294;-0.096092;0.285809;1;0;
371;0;-2.753590;3.581999;-7.979919;316.264959;268.470998;-60.898088;-0.284727;-0.051433;-0.816140;1;-0.703079;0.781476;11.701827;-35.406623;-57.597131;11.648056;0.188824;0.024477;-0.987289;6;9.544982;-2.089141;-0.727223;-22.885879;7.679621;45.205967;-0.624899;-0.144047;0.272722;1;0;
372;0;19.805458;6.450816;-4.460185;21.885262;227.628526;-42.890634;-0.212195;-0.122161;-0.800807;1;-0.449310;0.500293;12.782578;-42.696450;-67.515101;8.460734;0.176073;0.070363;-0.990024;6;10.085667;-0.984192;-0.053646;-24.839621;4.558398;47.612737;-0.596595;-0.112080;0.286716;1;0;
373;0;7.892600;-2.970966;6.407145;-125.314989;247.376285;-116.796226;-0.142349;-0.113791;-0.791893;1;-2.059750;1.914101;15.637325;-26.566382;-77.859295;-1.463334;0.163468;0.086680;-1.005101;6;11.327673;0.233805;0.274190;-24.436475;-3.554995;48.506101;-0.624481;-0.111662;0.271048;1;0;
374;0;-8.302597;9.649011;12.851312;12.952150;300.510306;-78.156139;-0.168718;-0.112699;-0.844082;1;-0.826498;-0.962645;13.849035;-21.729730;-95.841792;-0.651663;0.150637;0.057036;-1.017168;6;12.359073;-1.447256;1.603679;-19.376809;-9.418058;46.375548;-0.623851;-0.081756;0.315957;1;0;
375;0;-4.732998;9.318480;16.840650;-61.783786;272.814113;-43.386916;-0.056126;-0.119224;-0.832800;1;-0.835601;-1.016970;16.113363;-16.710341;-110.163759;-10.623999;0.163248;0.100929;-0.991755;6;13.895072;-3.077390;1.505555;-25.304748;-13.962605;40.151166;-0.624273;-0.095469;0.270211;1;0;
376;0;-3.560453;0.591121;17.906450;-21.873553;240.646784;7.073170;-0.071389;-0.094836;-0.825206;1;-1.716260;1.012023;15.473900;-2.284232;-135.037917;-17.148299;0.124390;0.055814;-1.002267;6;14.343728;-1.979723;0.380825;-21.669799;-17.924313;34.103664;-0.610436;-0.094439;0.254753;1;0;
377;0;-0.613312;-0.291758;13.470451;17.969879;226.039442;30.608521;-0.013793;-0.085749;-0.868831;1;-2.175012;1.350964;15.577793;0.976602;-157.751776;-14.874332;0.137446;0.131420;-0.993211;6;14.616685;-1.462412;-0.749679;-11.509855;-19.443829;33.707256;-0.651880;-0.079685;0.269234;1;0;
378;0;4.350736;4.506667;21.657151;51.890901;164.791943;20.683842;0.015935;-0.072385;-0.925833;1;-2.328606;0.845024;16.423333;0.701664;-181.474168;-11.225954;0.098142;0.054592;-0.987366;6;14.475138;-1.293105;-2.009183;0.560558;-20.236052;37.580474;-0.652439;-0.110418;0.239852;1;0;
379;0;0.732736;-11.431785;14.529455;165.268298;68.194251;-27.124186;0.043461;-0.114790;-0.863396;1;-2.005961;0.338838;18.014860;7.506254;-209.477166;-6.381226;0.045868;0.037900;-0.970909;6;14.166062;-0.482085;-2.670200;7.405199;-20.924679;38.506703;-0.610156;-0.079073;0.269444;1;0;
380;0;-1.179999;3.029609;10.972889;116.705541;30.539757;-43.424464;0.058725;-0.139178;-0.870990;1;-2.611484;0.397445;19.304320;19.775932;-239.797705;1.219510;0.058479;0.081792;-0.945497;6;13.920384;-0.135067;-3.152374;11.723808;-20.167536;37.753711;-0.624694;-0.109183;0.224465;1;0;
381;0;-1.581629;1.753358;7.947686;68.412209;29.011623;-15.182763;0.057582;-0.115164;-0.863746;1;-1.846388;-1.406011;19.941554;38.689100;-267.282698;9.963745;0.019847;0.082639;-0.959019;6;13.474011;0.627182;-1.660291;10.904867;-18.368080;32.031233;-0.624135;-0.078451;0.253846;1;0;
382;0;-0.723066;-0.073289;10.798207;46.322849;9.853009;-23.221129;0.072503;-0.177680;-0.822280;1;-0.954695;-2.251543;21.205048;65.920524;-289.065904;17.137526;-0.032873;0.034234;-0.926206;6;12.360697;0.980182;-1.200460;4.815004;-11.809738;19.763731;-0.623784;-0.063911;0.284065;1;0;
383;0;-1.006697;3.074823;8.134930;35.567293;4.572751;-22.754561;0.030884;-0.169499;-0.849384;1;-0.032140;-3.041894;21.223726;97.127372;-306.721407;20.471097;-0.084482;0.035006;-0.939453;6;11.052168;1.097079;-1.763338;-1.959190;-6.604595;13.925126;-0.595902;-0.045658;0.252312;1;0;
384;0;-0.014401;3.020778;9.120121;1.359862;3.167787;0.384916;0.045390;-0.183645;-0.846317;1;0.752045;-2.816551;22.938820;115.303379;-314.785698;20.683150;-0.098639;0.030643;-0.881778;6;10.834136;1.392202;-0.748086;-10.320286;-5.289085;11.014803;-0.623438;-0.030700;0.266863;1;0;
385;0;0.359609;0.901465;10.596053;1.421979;3.697808;-0.250675;0.071717;-0.132838;-0.846603;1;2.544922;-2.371252;20.712300;136.133160;-328.103770;16.652424;-0.163813;0.029196;-0.866050;6;10.270115;1.515638;0.679169;-17.136302;-5.778320;5.692965;-0.610014;-0.080725;0.300500;1;0;
386;0;0.848502;1.986932;9.303039;3.784843;3.700135;0.509258;0.058368;-0.160006;-0.839422;1;0.287801;-1.355863;17.495398;135.676106;-342.585633;12.747201;-0.203332;0.026827;-0.836523;6;10.147930;0.933912;0.374962;-23.298544;-7.366933;-2.529214;-0.609668;-0.047514;0.283298;1;0;
387;0;0.746656;1.415253;9.923783;1.095623;3.946742;2.054392;0.085866;-0.167811;-0.811969;1;1.043240;-0.396929;20.625889;128.639955;-321.598689;26.792177;-0.243001;-0.006183;-0.804989;6;9.618020;0.877298;0.424717;-25.711389;-8.450174;-8.046952;-0.609455;-0.049993;0.329881;1;0;
388;0;0.735148;1.929815;9.357423;2.429463;2.712170;0.343764;0.043861;-0.145860;-0.842489;1;2.602519;1.403069;21.056524;165.765792;-287.556123;36.902276;-0.321597;-0.039417;-0.772628;6;9.258381;-0.052838;-0.005189;-24.120256;-8.732005;-9.823890;-0.637905;-0.061636;0.237411;1;0;
389;0;0.794836;1.643048;9.471037;2.003886;2.606151;1.385970;0.057610;-0.149763;-0.828762;1;-2.905557;-3.383788;10.576226;185.299641;-273.938654;30.887157;-0.309657;-0.073199;-0.727847;6;8.775382;-0.112307;-0.613309;-19.273296;-8.540840;-8.894978;-0.637692;-0.064115;0.283995;1;0;
390;0;0.744429;1.414771;9.810076;2.501987;3.149440;2.466731;0.101472;-0.154073;-0.868622;1;-15.428204;-9.004553;-2.429924;153.578984;-209.292740;10.015466;-0.361706;-0.043930;-0.714402;6;8.604106;-0.226817;-0.317570;-12.580996;-8.051426;-3.634439;-0.582340;-0.078665;0.269585;1;0;
391;0;0.690224;1.817627;9.981211;2.627197;3.330229;2.837318;0.044633;-0.173402;-0.835657;1;-15.342005;-7.930811;1.705668;76.009149;-113.734099;2.331997;-0.388179;-0.091113;-0.696489;6;8.661326;-0.401675;-0.437025;-7.879228;-9.460828;1.184146;-0.651321;-0.048953;0.298615;1;0;
392;0;0.919449;1.530253;9.984459;4.189879;3.495008;2.498156;0.072102;-0.146609;-0.843187;1;-14.241009;-7.932574;2.068475;-14.828662;-43.338104;5.147377;-0.375793;-0.093182;-0.668066;6;8.011318;-0.516589;-0.509532;-3.704167;-11.270686;6.098430;-0.582061;-0.063298;0.284275;1;0;
393;0;0.570190;1.759062;9.694478;5.757458;4.083769;2.717885;0.072088;-0.129310;-0.860679;1;-13.279326;-6.183961;6.845805;-28.027527;29.432704;11.317005;-0.413760;-0.074871;-0.711291;6;8.253851;-0.457570;-0.145441;1.351409;-11.526612;11.888705;-0.596036;-0.081348;0.316098;1;0;
394;0;0.175965;1.933124;10.028526;5.338648;4.709393;4.293290;0.072102;-0.146609;-0.843187;1;-11.700110;-5.568576;5.407547;-0.420281;55.896206;16.658383;-0.389799;-0.066904;-0.612398;6;8.493102;0.065563;0.100813;6.674870;-9.959012;18.892267;-0.637834;-0.062462;0.252939;1;0;
395;0;0.454650;1.644021;9.634915;4.734217;5.120081;5.773720;0.059111;-0.152949;-0.867574;1;-9.803868;-5.292960;2.616907;-3.156869;68.552862;11.633647;-0.401815;-0.048443;-0.656175;6;8.786407;0.355021;0.047645;10.537460;-7.349695;22.258859;-0.623576;-0.047718;0.283228;1;0;
396;0;0.112361;1.472186;9.684363;4.530543;5.306733;8.200005;0.059139;-0.187548;-0.832590;1;-8.785500;-5.464602;1.788931;-29.208478;87.865573;-6.907925;-0.388543;-0.047296;-0.670801;6;9.624448;0.007147;0.660636;11.134380;-4.388093;20.011092;-0.623784;-0.063911;0.284065;1;0;
397;0;0.333377;1.757539;9.292052;5.178237;5.454355;8.997865;0.072088;-0.129310;-0.860679;1;-8.707576;-4.731560;2.810269;-52.159381;105.550227;-28.545132;-0.336940;-0.108277;-0.667889;6;10.326174;-0.054033;0.314153;10.326937;-2.799970;11.080967;-0.623296;-0.032352;0.297918;1;0;
398;0;0.561489;1.469924;9.238446;4.898067;4.964844;8.684053;0.058754;-0.173777;-0.836006;1;-8.155270;-3.660827;4.521238;-63.044562;122.391917;-48.083962;-0.335459;-0.042708;-0.729303;6;10.334707;0.064097;0.793903;8.923249;-1.038927;0.013393;-0.609597;-0.048340;0.298826;1;0;
399;0;0.689235;1.645061;9.923634;4.981147;4.458834;7.264933;0.072117;-0.163908;-0.825695;1;-8.077669;-2.758793;5.542719;-61.968980;137.545361;-62.913107;-0.348440;-0.102993;-0.739362;6;9.273227;-0.281929;0.772611;7.910801;1.366176;-8.123880;-0.623784;-0.063911;0.284065;1;0;
400;0;0.338738;2.045953;9.577524;5.678577;4.233309;5.756590;0.102244;-0.181615;-0.861790;1;-6.915781;-1.971847;6.133957;-56.669952;152.298431;-74.105223;-0.322338;-0.072202;-0.741921;6;9.093822;-0.688797;0.587859;7.530955;4.026060;-8.135197;-0.595902;-0.045658;0.252312;1;0;
401;0;0.909920;2.389946;9.533254;5.340075;4.454851;5.055825;0.086209;-0.129684;-0.861028;1;-6.162811;-1.860398;6.376326;-53.515529;166.272470;-82.933190;-0.309952;-0.074271;-0.713497;6;9.317937;-0.285278;-0.005078;7.392478;4.585600;-6.089770;-0.638039;-0.097326;0.301197;1;0;
402;0;0.805722;1.990110;10.041015;5.278301;4.455955;4.933353;0.057610;-0.149763;-0.828762;1;-5.350158;-0.960286;6.790487;-53.973404;178.224796;-89.533972;-0.282449;-0.053441;-0.786801;6;9.016659;-0.460314;-0.370763;7.606058;5.025359;-7.131725;-0.596040;-0.062676;0.268677;1;0;
403;0;1.089602;2.219186;9.933842;5.096856;5.199253;4.363281;0.057239;-0.153291;-0.814686;1;-5.281928;-0.847306;7.301547;-57.403206;187.547638;-93.327573;-0.269549;-0.068686;-0.786073;6;9.422339;-0.579142;-0.782903;7.061069;5.035354;-5.326679;-0.595969;-0.063503;0.284205;1;0;
404;0;0.684740;1.701538;9.696463;4.066072;6.069600;5.791075;0.101487;-0.171372;-0.851130;1;-4.465456;-0.679397;7.828370;-63.013383;193.303720;-94.569331;-0.204669;-0.068311;-0.787452;6;9.069612;-0.694236;-0.730093;7.810392;4.271780;-8.137382;-0.595902;-0.045658;0.252312;1;0;
405;0;0.226331;2.218843;9.689727;4.436056;6.284001;6.008162;0.073246;-0.170623;-0.850431;1;-4.328220;-0.228067;8.907320;-67.876160;194.946442;-92.923308;-0.242786;-0.080641;-0.828670;6;8.709028;-1.217841;-1.158269;7.036427;2.722480;-6.476887;-0.624273;-0.095469;0.270211;1;0;
406;0;0.106670;1.643304;9.400822;4.155900;6.389160;4.753333;0.085837;-0.133213;-0.846952;1;-3.291588;0.164354;8.986052;-73.472914;195.030003;-88.426892;-0.204223;-0.036598;-0.803809;6;8.765823;-1.683326;-1.338867;4.629047;1.414242;-5.025537;-0.637488;-0.029251;0.235737;1;0;
407;0;1.022409;2.102173;9.420568;3.480359;6.201974;4.721568;0.087352;-0.153698;-0.868272;1;-3.395192;-0.172987;9.493106;-81.551979;199.298562;-82.411273;-0.177681;-0.034304;-0.833060;6;9.232470;-1.220787;-1.567713;1.298368;0.720467;-4.154435;-0.637905;-0.061636;0.237411;1;0;
408;0;0.459311;1.357778;9.861121;3.836350;5.298791;3.203172;0.087781;-0.219367;-0.812381;1;-3.655300;0.504656;10.846981;-93.106962;209.878713;-74.239552;-0.164265;-0.062727;-0.860028;6;8.889377;-1.217505;-0.975247;-2.492571;0.579741;-3.681605;-0.623993;-0.080103;0.284902;1;0;
409;0;0.859388;2.333994;9.873017;4.200765;4.872009;3.041850;0.059882;-0.180491;-0.860742;1;-3.352189;0.730056;11.589530;-103.786077;226.366098;-64.066258;-0.137647;-0.045112;-0.890282;6;8.771345;-1.217234;-0.977448;-5.460926;0.119394;-4.554952;-0.624135;-0.078451;0.253846;1;0;
410;0;0.912561;1.816014;9.644547;3.710681;4.931530;3.013561;0.087366;-0.170997;-0.850781;1;-3.202540;1.012868;13.234733;-116.897332;246.093051;-53.276769;-0.112216;-0.091995;-0.873473;6;8.837504;-1.448190;-0.617895;-7.742306;-0.417027;-3.749522;-0.623784;-0.063911;0.284065;1;0;
411;0;0.403046;1.530385;9.917584;3.156934;5.060223;2.281228;0.044262;-0.176930;-0.821581;1;-2.553821;1.124960;13.984441;-125.054671;261.890083;-40.857598;-0.111991;-0.046034;-0.876484;6;8.248038;-1.272365;-0.568251;-10.295771;-0.933628;-1.995765;-0.638043;-0.078655;0.253776;1;0;
412;0;0.627278;1.988787;9.696556;4.373530;4.529471;0.797053;0.114464;-0.147733;-0.844235;1;-2.390444;1.182972;16.252490;-126.108752;270.289375;-25.824169;-0.032138;0.006809;-0.967248;6;9.207682;-1.735919;0.226168;-11.807040;-1.217517;-1.683312;-0.610440;-0.075768;0.207333;1;0;
413;0;0.404367;1.243419;9.973231;4.956766;4.717273;0.737091;0.100701;-0.126531;-0.875453;1;-2.207407;1.464728;16.766111;-122.086774;272.247102;-8.353332;0.006344;-0.024679;-0.951718;6;9.381024;-1.562838;0.050491;-12.442227;-1.929603;-4.030901;-0.624690;-0.127854;0.271885;1;0;
414;0;0.108938;1.586345;9.514286;4.958875;5.180676;0.529941;0.059154;-0.204847;-0.815099;1;-2.426789;1.465586;17.271031;-119.276281;271.482580;11.124723;0.019615;-0.023532;-0.966343;6;8.974784;-1.676561;0.401734;-11.598854;-2.509594;-6.812289;-0.637830;-0.081134;0.300359;1;0;
415;0;0.401518;2.104559;9.863144;5.755308;5.467235;-0.019716;0.059111;-0.152949;-0.867574;1;-2.545678;0.902307;17.041581;-124.220785;270.836549;30.228520;0.058839;-0.022235;-0.981520;6;8.859337;-2.314880;0.456721;-10.127867;-2.549373;-8.376038;-0.665437;-0.065349;0.299382;1;0;
416;0;0.625833;2.448078;9.641634;4.353148;6.095925;0.883906;0.044633;-0.173402;-0.835657;1;-2.294111;0.508368;18.008958;-131.362190;272.227008;47.285883;0.098142;0.054592;-0.987366;6;8.910266;-1.677663;0.101099;-8.589179;-2.507250;-8.962466;-0.624344;-0.094643;0.254683;1;0;
417;0;0.521429;2.335449;10.150602;4.354466;5.747800;1.767607;0.058754;-0.173777;-0.836006;1;-1.591130;0.451219;18.589813;-136.891278;273.864564;62.436002;0.163173;0.085608;-0.990752;6;9.094842;-2.547972;0.400227;-6.251298;-2.240241;-10.316870;-0.651809;-0.080512;0.284761;1;0;
418;0;0.224768;1.299296;9.572160;3.501832;6.353897;2.178590;0.073617;-0.167095;-0.864507;1;-0.684369;-0.055713;20.589906;-144.062568;275.033001;75.915614;0.177405;0.105291;-1.049430;6;8.559585;-2.199042;0.212085;-2.771424;-1.629811;-11.952073;-0.623855;-0.063085;0.268537;1;0;
419;0;0.730901;1.641642;9.128804;4.895454;7.288662;4.336484;0.115607;-0.171747;-0.851479;1;-0.020048;0.505303;19.415456;-137.646533;274.958452;85.755782;0.228278;0.131945;-0.995141;6;8.636228;-1.730366;1.233581;-1.635827;-1.988365;-12.382313;-0.666276;-0.111448;0.255310;1;0;
420;0;-0.170695;1.645441;9.850079;3.942083;7.168603;3.693266;0.072131;-0.181208;-0.808204;1;3.958202;-0.234241;19.724812;-157.429560;267.742500;88.288834;0.280552;0.148637;-1.011598;6;8.032706;-2.138762;0.442056;2.785148;-1.218811;-11.332395;-0.624273;-0.095469;0.270211;1;0;
421;0;0.228724;1.989559;9.802468;5.230336;7.265415;3.813800;0.073260;-0.187922;-0.832940;1;9.002443;-0.129534;21.529270;-172.494995;253.374988;74.536204;0.280628;0.163958;-1.012601;6;8.573175;-2.835159;0.868342;6.892500;-2.303053;-8.591656;-0.596386;-0.095888;0.285879;1;0;
422;0;0.511863;1.701421;9.636270;3.549524;8.464394;3.102109;0.059525;-0.201319;-0.829175;1;13.894084;-0.418058;24.236003;-169.605202;230.656780;51.928245;0.345883;0.240935;-1.018998;6;8.043825;-2.659221;0.978993;10.940652;-2.677976;-6.434692;-0.609947;-0.062880;0.268607;1;0;
423;0;0.464340;2.105724;10.148523;3.799266;8.796625;3.720136;0.100729;-0.161129;-0.840470;1;18.712354;0.360899;23.601901;-144.026104;200.357513;23.838071;0.396832;0.282909;-0.965713;6;7.979307;-2.660322;0.678358;14.028559;-2.951415;0.370787;-0.638803;-0.162922;0.320073;1;0;
424;0;0.580128;1.876116;10.206638;3.922264;9.453320;2.779767;0.072888;-0.191451;-0.818864;1;21.183951;1.424113;20.880654;-112.967282;166.142608;-4.624142;0.422489;0.281987;-0.951915;6;7.750405;-2.425747;1.094294;17.063825;-4.052765;4.399428;-0.596315;-0.096714;0.301407;1;0;
425;0;0.516317;1.702386;9.863682;5.116507;10.181698;1.377461;0.115221;-0.157976;-0.854895;1;22.436510;4.010229;17.795462;-87.856418;128.912849;-29.728569;0.435389;0.266742;-0.951187;6;7.691950;-2.193061;1.154089;22.368890;-4.219202;10.493949;-0.638318;-0.112692;0.286506;1;0;
426;0;0.517058;2.219601;9.922707;3.772917;11.914041;-0.154575;0.088152;-0.215839;-0.826457;1;22.385092;4.346221;15.416883;-67.631063;92.154542;-48.604259;0.448221;0.296386;-0.939120;6;8.625629;-1.907066;0.633770;21.305972;-0.921950;25.521161;-0.638039;-0.097326;0.301197;1;0;
427;0;1.208440;2.392393;10.164205;-2.771289;16.818178;-4.349598;0.158355;-0.186641;-0.849111;1;22.017017;6.092355;14.504866;-52.117181;59.789901;-60.688759;0.461492;0.297533;-0.953745;6;8.277149;-2.427952;0.864570;28.200093;3.143266;34.097571;-0.568432;-0.078461;0.269655;1;0;
428;0;0.172210;2.506816;9.860379;-7.554598;21.058509;-11.627562;0.087366;-0.170997;-0.850781;1;22.429817;20.241472;27.037748;-94.942448;-8.428156;-63.220187;0.435395;0.326952;-0.940852;6;9.026597;-2.840442;-0.141272;28.265850;7.147797;40.284326;-0.623851;-0.081756;0.315957;1;0;
429;0;0.149764;2.112245;11.620023;-22.072937;32.828280;-20.166312;0.100372;-0.181957;-0.808902;1;16.980248;16.078959;22.050804;76.631130;-72.393556;-27.128350;0.435546;0.357592;-0.942859;6;9.782552;-2.263662;-0.663656;21.230166;9.895552;35.405154;-0.624131;-0.097122;0.301267;1;0;
430;0;0.240848;2.164538;10.428576;-33.530972;53.489547;-28.416378;0.115593;-0.154447;-0.868971;1;20.698681;12.073637;23.370879;236.807158;-133.546043;27.143602;0.435100;0.325880;-0.926502;6;10.197346;-1.566953;-0.473265;9.612510;10.640780;24.407842;-0.637558;-0.028425;0.220209;1;0;
431;0;0.942252;2.339501;11.181752;-51.362163;59.858722;-28.292176;0.142720;-0.165781;-0.827441;1;22.213665;8.348727;18.530593;308.977678;-188.768454;60.936970;0.409218;0.280840;-0.937289;6;9.712262;-2.149847;-1.263331;6.358449;9.318611;12.107300;-0.596457;-0.095061;0.270352;1;0;
